,time,accX,accY,accZ,gyrX,gyrY,gyrZ,magX,magY,magZ,new_Col1,col2
0,1620022010,-5.5097656,-2.2207031,5.2089843,3.4179687000000007,16.1132812,-30.944824199999996,-0.1751953,0.0063476999999999995,0.060302699999999994,2021-05-03 11:36:50,
1,1620022010,-5.5332031,-2.2109375,5.2050781,-15.3808593,22.277832,-27.8930664,-0.1751953,0.0063476999999999995,0.060302699999999994,2021-05-03 11:36:50,
2,1620022010,-5.5917969,-2.0976562000000003,5.2519531,-28.5644531,27.282714799999997,-22.1557617,-0.1751953,0.0063476999999999995,0.060302699999999994,2021-05-03 11:36:50,2
3,1620022011,-5.5175781,-2.1074217999999996,5.2207031,-43.029785100000005,37.8417969,-6.1035156,-0.1751953,0.0063476999999999995,0.060302699999999994,2021-05-03 11:36:51,2
4,1620022011,-5.5625,-2.1523437000000003,5.3066406,-57.6171875,41.5039062,12.4511719,-0.1751953,0.0063476999999999995,0.060302699999999994,2021-05-03 11:36:51,2
5,1620022011,-5.5820312,-2.1582031,5.2636718,-62.561035100000005,40.9545898,28.259277299999997,-0.1751953,0.0063476999999999995,0.060302699999999994,2021-05-03 11:36:51,2
6,1620022010,-5.5742187,-2.1484375,5.2695312,-77.94189449999999,30.395507799999997,39.855957000000004,-0.1751953,0.0063476999999999995,0.060302699999999994,2021-05-03 11:36:50,2
7,1620022010,-5.5585937,-2.2167967999999996,5.3320312,-80.4443359,31.25,42.2363281,-0.1751953,0.0063476999999999995,0.060302699999999994,2021-05-03 11:36:50,2
8,1620022010,-5.4824219,-2.2207031,5.3789062,-74.21875,37.8417969,44.1284179,-0.1751953,0.0063476999999999995,0.060302699999999994,2021-05-03 11:36:50,2
9,1620022010,-5.4589844,-2.2207031,5.4023437,-69.2749023,39.2456054,43.2128906,-0.1751953,0.0063476999999999995,0.060302699999999994,2021-05-03 11:36:50,2
10,1620022010,-5.4570312,-2.234375,5.3730468,-55.2368164,36.3159179,32.714843699999996,-0.1751953,0.0063476999999999995,0.060302699999999994,2021-05-03 11:36:50,2
11,1620022010,-5.484375,-2.2324217999999996,5.4277344,-45.4711914,28.259277299999997,26.0620117,-0.1751953,0.0063476999999999995,0.060302699999999994,2021-05-03 11:36:50,2
12,1620022010,-5.4882812,-2.2070312000000003,5.4609375,-29.0527343,21.5454101,17.4560547,-0.1751953,0.0063476999999999995,0.060302699999999994,2021-05-03 11:36:50,2
13,1620022010,-5.4160156,-2.1445312000000003,5.4394531,-19.4091797,14.5263672,15.4418945,-0.1751953,0.0063476999999999995,0.060302699999999994,2021-05-03 11:36:50,2
14,1620022010,-5.4316406,-2.2402342999999996,5.4785156,-2.1972656,10.1318359,9.6435547,-0.1751953,0.0063476999999999995,0.060302699999999994,2021-05-03 11:36:50,2
15,1620022010,-5.4433594,-2.2207031,5.4296875,14.8315429,-1.6479491999999998,-2.9907227,-0.1751953,0.0063476999999999995,0.060302699999999994,2021-05-03 11:36:50,2
16,1620022010,-5.4296875,-2.1894531,5.4121093,26.306152299999997,-1.7089843999999996,-7.995605499999999,-0.1751953,0.0063476999999999995,0.060302699999999994,2021-05-03 11:36:50,2
17,1620022010,-5.4355469,-2.2070312000000003,5.4238281,33.8745117,-0.4272460999999999,-16.6015625,-0.1751953,0.0063476999999999995,0.060302699999999994,2021-05-03 11:36:50,2
18,1620022010,-5.4570312,-2.2636717999999996,5.328125,43.029785100000005,-9.1552734,-24.4140625,-0.1751953,0.0063476999999999995,0.060302699999999994,2021-05-03 11:36:50,2
19,1620022010,-5.453125,-2.1542967999999996,5.3183593,46.1425781,-7.5073242,-31.0668945,-0.1751953,0.0063476999999999995,0.060302699999999994,2021-05-03 11:36:50,2
20,1620022010,-5.4824219,-2.2285156,5.2753906,43.3349609,-2.6855469,-31.25,-0.1751953,0.0063476999999999995,0.060302699999999994,2021-05-03 11:36:50,2
21,1620022010,-5.546875,-2.1464842999999996,5.3164062,37.9638672,-1.3427733999999998,-32.5927734,-0.1751953,0.0063476999999999995,0.060302699999999994,2021-05-03 11:36:50,2
22,1620022010,-5.5097656,-2.1113281,5.2382812,25.7568359,-5.859375,-28.6865234,-0.1751953,0.0063476999999999995,0.060302699999999994,2021-05-03 11:36:50,2
23,1620022010,-5.5722656,-2.1035156,5.2929687,22.3388672,4.2724609000000004,-20.3857422,-0.1751953,0.0063476999999999995,0.060302699999999994,2021-05-03 11:36:50,2
24,1620022010,-5.5566406,-2.1386717999999996,5.2304687,6.591796899999999,5.6762695,-13.671875,-0.1751953,0.0063476999999999995,0.060302699999999994,2021-05-03 11:36:50,2
25,1620022010,-5.5917969,-2.1738281,5.21875,-0.12207029999999999,19.8974609,-6.958007799999999,-0.1751953,0.0063476999999999995,0.060302699999999994,2021-05-03 11:36:50,2
26,1620022010,-5.5429687,-2.1640625,5.2226562,-23.8037109,16.3574218,-0.48828130000000003,-0.1751953,0.0063476999999999995,0.060302699999999994,2021-05-03 11:36:50,2
27,1620022010,-5.5273437,-2.2011717999999996,5.1953125,-30.8227539,22.4609375,1.953125,-0.1751953,0.0063476999999999995,0.060302699999999994,2021-05-03 11:36:50,2
28,1620022010,-5.5351562,-2.1464842999999996,5.1796875,-48.4008789,26.184082,10.4370117,-0.1751953,0.0063476999999999995,0.060302699999999994,2021-05-03 11:36:50,2
29,1620022010,-5.5390625,-2.1347656,5.2363281,-51.0253906,43.6401367,12.512207,-0.1751953,0.0063476999999999995,0.060302699999999994,2021-05-03 11:36:50,2
30,1620022010,-5.5488281,-2.21875,5.1816406,-66.04003900000001,36.5600586,23.4375,-0.1751953,0.0063476999999999995,0.060302699999999994,2021-05-03 11:36:50,2
31,1620022010,-5.4863281,-2.1582031,5.3242187,-61.9506836,33.996582000000004,22.8271484,-0.1751953,0.0063476999999999995,0.060302699999999994,2021-05-03 11:36:50,2
32,1620022011,-5.5019531,-2.2011717999999996,5.2851562,-66.5283203,36.6210937,38.7573242,-0.1751953,0.0063476999999999995,0.060302699999999994,2021-05-03 11:36:51,2
33,1620022011,-5.46875,-2.2226562000000003,5.3378906,-70.0683593,38.146972600000005,41.809082000000004,-0.1751953,0.0063476999999999995,0.060302699999999994,2021-05-03 11:36:51,2
34,1620022011,-5.515625,-2.2578125,5.4804687,-55.847168,31.1279296,34.9121094,-0.1751953,0.0063476999999999995,0.060302699999999994,2021-05-03 11:36:51,2
35,1620022011,-5.4863281,-2.1640625,5.3769531,0.9765626000000001,17.3339843,-3.1738281,-0.1751953,0.0063476999999999995,0.060302699999999994,2021-05-03 11:36:51,2
36,1620022011,-5.4960937,-2.1171875,5.4277344,-2.9907227,9.3383789,2.5634765,-0.1751953,0.0063476999999999995,0.060302699999999994,2021-05-03 11:36:51,2
37,1620022011,-5.5058594,-2.1953125,5.3125,15.3808593,7.629394500000001,-8.9111328,-0.1751953,0.0063476999999999995,0.060302699999999994,2021-05-03 11:36:51,2
38,1620022011,-5.5117187,-2.2558592999999996,5.3203125,6.0424804000000005,-9.2773437,-9.9487305,-0.1751953,0.0063476999999999995,0.060302699999999994,2021-05-03 11:36:51,2
39,1620022011,-5.4726562,-2.2226562000000003,5.296875,28.3813476,3.2958983999999996,-25.3295898,-0.1751953,0.0063476999999999995,0.060302699999999994,2021-05-03 11:36:51,2
40,1620022011,-5.4980469,-2.2402342999999996,5.3066406,18.4936523,0.4272460999999999,-30.8837891,-0.1751953,0.0063476999999999995,0.060302699999999994,2021-05-03 11:36:51,2
41,1620022011,-5.5078125,-2.2578125,5.2695312,31.6162109,8.2397461,-40.100097600000005,-0.1751953,0.0063476999999999995,0.060302699999999994,2021-05-03 11:36:51,2
42,1620022011,-5.5429687,-2.2050781,5.3535156,27.832031199999996,0.7934571,-37.41455070000001,-0.1751953,0.0063476999999999995,0.060302699999999994,2021-05-03 11:36:51,2
43,1620022011,-5.5214844,-2.1523437000000003,5.3417968,30.1513671,0.7934571,-35.3393554,-0.1751953,0.0063476999999999995,0.060302699999999994,2021-05-03 11:36:51,2
44,1620022011,-5.5292969,-2.1738281,5.1757812,23.1323242,-4.699707,-24.7802734,-0.1751953,0.0063476999999999995,0.060302699999999994,2021-05-03 11:36:51,2
45,1620022011,-5.53125,-2.2050781,5.2773437,24.5971679,-1.0375976,-19.7143554,-0.1751953,0.0063476999999999995,0.060302699999999994,2021-05-03 11:36:51,2
46,1620022011,-5.5214844,-2.1855467999999996,5.2753906,18.1274414,2.8076172,-9.0332031,-0.1751953,0.0063476999999999995,0.060302699999999994,2021-05-03 11:36:51,2
47,1620022011,-5.5214844,-2.265625,5.2050781,10.9863281,3.0517578,-6.652832000000001,-0.1751953,0.0063476999999999995,0.060302699999999994,2021-05-03 11:36:51,2
48,1620022011,-5.5625,-2.2636717999999996,5.1699218,1.8310547,5.3710937,-5.0048828,-0.1751953,0.0063476999999999995,0.060302699999999994,2021-05-03 11:36:51,2
49,1620022011,-5.5351562,-2.2265625,5.21875,-8.7890625,11.4135742,-0.8544921999999998,-0.1751953,0.0063476999999999995,0.060302699999999994,2021-05-03 11:36:51,2
50,1620022011,-5.5058594,-2.2207031,5.1679687,-14.282226500000002,21.3623047,1.8310547,-0.1751953,0.0063476999999999995,0.060302699999999994,2021-05-03 11:36:51,2
51,1620022011,-5.5195312,-2.2011717999999996,5.2929687,-25.3295898,21.3012695,8.7280273,-0.1751953,0.0063476999999999995,0.060302699999999994,2021-05-03 11:36:51,
52,1620022011,-5.5664062,-2.140625,5.3046875,-25.8178711,20.9960938,13.916015599999998,-0.1751953,0.0063476999999999995,0.060302699999999994,2021-05-03 11:36:51,
53,1620022011,-5.5390625,-2.1757812000000003,5.2988281,-28.3203125,18.7377929,18.1274414,-0.1751953,0.0063476999999999995,0.060302699999999994,2021-05-03 11:36:51,
54,1620022011,-5.4765625,-2.1914062000000003,5.3261718,-29.7241211,18.4936523,20.8129883,-0.1751953,0.0063476999999999995,0.060302699999999994,2021-05-03 11:36:51,
55,1620022011,-5.5,-2.1660156,5.296875,-30.4565429,20.7519531,15.197753899999999,-0.1751953,0.0063476999999999995,0.060302699999999994,2021-05-03 11:36:51,
56,1620022011,-5.5351562,-2.2402342999999996,5.3535156,-30.7006836,20.9960938,7.8125,-0.1751953,0.0063476999999999995,0.060302699999999994,2021-05-03 11:36:51,
57,1620022011,-5.4726562,-2.2109375,5.3046875,-30.395507799999997,24.4750976,0.12207029999999999,-0.1751953,0.0063476999999999995,0.060302699999999994,2021-05-03 11:36:51,
58,1620022011,-5.4648437,-2.171875,5.2753906,-27.465820299999997,27.5878906,-3.2958983999999996,-0.1751953,0.0063476999999999995,0.060302699999999994,2021-05-03 11:36:51,
59,1620022011,-5.5214844,-2.1660156,5.3417968,-23.071289,24.7192383,-1.1596678999999999,-0.1751953,0.0063476999999999995,0.060302699999999994,2021-05-03 11:36:51,
60,1620022011,-5.4863281,-2.2285156,5.34375,-18.1884765,17.7001953,1.2207031000000002,-0.1751953,0.0063476999999999995,0.060302699999999994,2021-05-03 11:36:51,
61,1620022011,-5.4746094,-2.234375,5.3789062,-11.4135742,12.6953125,0.7934571,-0.1751953,0.0063476999999999995,0.060302699999999994,2021-05-03 11:36:51,
62,1620022011,-5.515625,-2.2246092999999996,5.3847656,-8.3618164,8.4838867,-2.3803711,-0.1751953,0.0063476999999999995,0.060302699999999994,2021-05-03 11:36:51,
63,1620022011,-5.5234375,-2.2480467999999996,5.3398437,-1.7700195,14.0380859,-7.2021484,-0.1751953,0.0063476999999999995,0.060302699999999994,2021-05-03 11:36:51,
64,1620022012,-5.4921875,-2.2695312000000003,5.3613281,2.1972656,11.2304687,-10.3759765,-0.1751953,0.0063476999999999995,0.060302699999999994,2021-05-03 11:36:52,
65,1620022012,-5.4667969,-2.2207031,5.2792968,6.8359375,9.5825195,-10.7421875,-0.1751953,0.0063476999999999995,0.060302699999999994,2021-05-03 11:36:52,
66,1620022011,-5.5058594,-2.1269531,5.3046875,8.972168,3.90625,-8.9111328,-0.1751953,0.0063476999999999995,0.060302699999999994,2021-05-03 11:36:51,
67,1620022011,-5.4960937,-2.1679687000000003,5.3164062,14.8315429,6.2866211,-7.690429700000001,-0.1751953,0.0063476999999999995,0.060302699999999994,2021-05-03 11:36:51,
68,1620022011,-5.4941406,-2.1875,5.3789062,15.3808593,5.1269531,-3.4790038999999995,-0.1751953,0.0063476999999999995,0.060302699999999994,2021-05-03 11:36:51,
69,1620022011,-5.4980469,-2.2324217999999996,5.3046875,14.221191399999999,-0.4272460999999999,-2.9296875,-0.1751953,0.0063476999999999995,0.060302699999999994,2021-05-03 11:36:51,
70,1620022011,-5.4941406,-2.1777342999999996,5.2597656,0.366211,9.7045898,-6.5307617,-0.1751953,0.0063476999999999995,0.060302699999999994,2021-05-03 11:36:51,
71,1620022011,-5.5175781,-2.1640625,5.2988281,-5.0048828,13.244628899999999,-2.3803711,-0.1751953,0.0063476999999999995,0.060302699999999994,2021-05-03 11:36:51,
72,1620022011,-5.5058594,-2.1445312000000003,5.3085937,-10.3149414,17.6391601,1.0986328,-0.1751953,0.0063476999999999995,0.060302699999999994,2021-05-03 11:36:51,
73,1620022011,-5.5,-2.2089842999999996,5.3085937,-16.5405273,14.465332,4.6386719,-0.1751953,0.0063476999999999995,0.060302699999999994,2021-05-03 11:36:51,
74,1620022011,-5.4589844,-2.2070312000000003,5.3144531,-19.4702148,14.5263672,7.2021484,-0.1751953,0.0063476999999999995,0.060302699999999994,2021-05-03 11:36:51,
75,1620022011,-5.5,-2.1796875,5.2871093,-22.7661133,19.4702148,8.972168,-0.1751953,0.0063476999999999995,0.060302699999999994,2021-05-03 11:36:51,
76,1620022011,-5.5019531,-2.2070312000000003,5.3339843,-23.1933593,22.9492188,9.9487305,-0.1751953,0.0063476999999999995,0.060302699999999994,2021-05-03 11:36:51,
77,1620022011,-5.53125,-2.1875,5.3300781,-27.038574199999996,20.6298828,5.7983398,-0.1751953,0.0063476999999999995,0.060302699999999994,2021-05-03 11:36:51,
78,1620022011,-5.5488281,-2.2167967999999996,5.2949218,-26.306152299999997,21.2402343,4.8828125,-0.1751953,0.0063476999999999995,0.060302699999999994,2021-05-03 11:36:51,
79,1620022011,-5.5039062,-2.2363281,5.3027343,-27.465820299999997,19.9584961,3.0517578,-0.1751953,0.0063476999999999995,0.060302699999999994,2021-05-03 11:36:51,
80,1620022011,-5.5429687,-2.1992187000000003,5.375,-23.0102539,21.6064453,3.6010742,-0.1751953,0.0063476999999999995,0.060302699999999994,2021-05-03 11:36:51,
81,1620022011,-5.4921875,-2.1933592999999996,5.3105468,-18.7988281,18.005371,4.0893554,-0.1751953,0.0063476999999999995,0.060302699999999994,2021-05-03 11:36:51,
82,1620022011,-5.4863281,-2.2480467999999996,5.3339843,-10.1318359,20.0195312,5.0659179000000005,-0.1751953,0.0063476999999999995,0.060302699999999994,2021-05-03 11:36:51,
83,1620022011,-5.4589844,-2.1640625,5.3398437,-10.8032226,14.3432617,6.958007799999999,-0.1751953,0.0063476999999999995,0.060302699999999994,2021-05-03 11:36:51,
84,1620022011,-5.4882812,-2.2265625,5.2832031,-6.2255859000000004,11.71875,1.3427733999999998,-0.1751953,0.0063476999999999995,0.060302699999999994,2021-05-03 11:36:51,
85,1620022011,-5.515625,-2.2382812000000003,5.3554687,-5.0659179000000005,11.352539,-1.4648437,-0.1751953,0.0063476999999999995,0.060302699999999994,2021-05-03 11:36:51,
86,1620022011,-5.4960937,-2.2128906,5.3378906,-0.12207029999999999,13.671875,-3.4790038999999995,-0.1751953,0.0063476999999999995,0.060302699999999994,2021-05-03 11:36:51,
87,1620022011,-5.5136719,-2.1582031,5.2363281,-0.48828130000000003,12.7563476,-5.6152344,-0.1751953,0.0063476999999999995,0.060302699999999994,2021-05-03 11:36:51,
88,1620022011,-5.4746094,-2.2597656,5.2910156,-0.366211,7.8735352,-7.1411131999999995,-0.1751953,0.0063476999999999995,0.060302699999999994,2021-05-03 11:36:51,
89,1620022012,-5.5117187,-2.1796875,5.2949218,-0.3051758,11.9018555,-9.2773437,-0.1751953,0.0063476999999999995,0.060302699999999994,2021-05-03 11:36:52,
90,1620022012,-5.5371094,-2.2148437000000003,5.2929687,-3.3569336000000005,14.0380859,-7.995605499999999,-0.1751953,0.0063476999999999995,0.060302699999999994,2021-05-03 11:36:52,
91,1620022012,-5.5703125,-2.2128906,5.2871093,-4.7607422,13.7939453,-7.3852539,-0.1751953,0.0063476999999999995,0.060302699999999994,2021-05-03 11:36:52,
92,1620022012,-5.5703125,-2.2226562000000003,5.3066406,-7.0190429000000005,10.6201172,-4.3945312,-0.1751953,0.0063476999999999995,0.060302699999999994,2021-05-03 11:36:52,
93,1620022012,-5.5039062,-2.2480467999999996,5.328125,-8.5449219,12.8173828,-1.7700195,-0.1751953,0.0063476999999999995,0.060302699999999994,2021-05-03 11:36:52,
94,1620022012,-5.5449219,-2.2207031,5.3164062,-10.1318359,14.3432617,-1.586914,-0.1751953,0.0063476999999999995,0.060302699999999994,2021-05-03 11:36:52,
95,1620022012,-5.5449219,-2.2265625,5.2539062,-12.3901367,13.244628899999999,2.0751953000000003,-0.1751953,0.0063476999999999995,0.060302699999999994,2021-05-03 11:36:52,
96,1620022012,-5.5410156,-2.2285156,5.2988281,-12.0239257,13.183593700000001,1.953125,-0.1751953,0.0063476999999999995,0.060302699999999994,2021-05-03 11:36:52,
97,1620022012,-5.5058594,-2.2011717999999996,5.3222656,-13.7939453,15.869140599999998,2.1972656,-0.1751953,0.0063476999999999995,0.060302699999999994,2021-05-03 11:36:52,
98,1620022012,-5.4785156,-2.1542967999999996,5.2480468,-12.3901367,17.211914,8.1787109,-0.1751953,0.0063476999999999995,0.060302699999999994,2021-05-03 11:36:52,
99,1620022012,-5.53125,-2.1992187000000003,5.3242187,-16.5405273,17.6391601,7.3852539,-0.1751953,0.0063476999999999995,0.060302699999999994,2021-05-03 11:36:52,
100,1620022012,-5.4882812,-2.2089842999999996,5.328125,-18.4326172,18.005371,8.972168,-0.1751953,0.0063476999999999995,0.060302699999999994,2021-05-03 11:36:52,
101,1620022012,-5.5214844,-2.1894531,5.2558593,-18.2495117,13.7939453,8.7890625,-0.1751953,0.0063476999999999995,0.060302699999999994,2021-05-03 11:36:52,
102,1620022012,-5.4726562,-2.1679687000000003,5.2988281,-18.4936523,17.7001953,7.080078100000001,-0.1751953,0.0063476999999999995,0.060302699999999994,2021-05-03 11:36:52,
103,1620022012,-5.4863281,-2.1855467999999996,5.2714843,-19.9584961,18.2495117,6.5307617,-0.1751953,0.0063476999999999995,0.060302699999999994,2021-05-03 11:36:52,
104,1620022012,-5.4863281,-2.2011717999999996,5.3300781,-15.4418945,20.5078125,4.150390600000001,-0.1751953,0.0063476999999999995,0.060302699999999994,2021-05-03 11:36:52,
105,1620022012,-5.5371094,-2.2558592999999996,5.3105468,-7.0190429000000005,17.0898437,-2.8076172,-0.1751953,0.0063476999999999995,0.060302699999999994,2021-05-03 11:36:52,
106,1620022012,-5.5351562,-2.2382812000000003,5.2832031,-9.399414,11.5356445,-3.8452148,-0.1751953,0.0063476999999999995,0.060302699999999994,2021-05-03 11:36:52,
107,1620022012,-5.5332031,-2.1875,5.3242187,-8.1787109,12.5732422,-5.1269531,-0.1751953,0.0063476999999999995,0.060302699999999994,2021-05-03 11:36:52,
108,1620022012,-5.5019531,-2.1796875,5.2617187,-6.7749023,13.0615234,-5.3710937,-0.1751953,0.0063476999999999995,0.060302699999999994,2021-05-03 11:36:52,
109,1620022012,-5.5175781,-2.1640625,5.2460937,-3.7841796999999997,12.0849609,-7.2021484,-0.1751953,0.0063476999999999995,0.060302699999999994,2021-05-03 11:36:52,
110,1620022012,-5.5390625,-2.2128906,5.3183593,-5.9204102,7.690429700000001,-7.995605499999999,-0.1751953,0.0063476999999999995,0.060302699999999994,2021-05-03 11:36:52,
111,1620022012,-5.5507812,-2.1855467999999996,5.3027343,2.5634765,11.1083984,-9.1552734,-0.1751953,0.0063476999999999995,0.060302699999999994,2021-05-03 11:36:52,
112,1620022012,-5.4863281,-2.1660156,5.3789062,1.586914,13.183593700000001,-5.0048828,-0.1751953,0.0063476999999999995,0.060302699999999994,2021-05-03 11:36:52,
113,1620022012,-5.4902344,-2.2246092999999996,5.3125,-0.366211,13.244628899999999,-3.4179687000000007,-0.1751953,0.0063476999999999995,0.060302699999999994,2021-05-03 11:36:52,
114,1620022012,-5.5078125,-2.1835937000000003,5.2910156,-3.2348632,9.9487305,-5.1269531,-0.1751953,0.0063476999999999995,0.060302699999999994,2021-05-03 11:36:52,
115,1620022012,-5.515625,-2.2167967999999996,5.3085937,-8.7890625,10.8642578,-0.48828130000000003,-0.1751953,0.0063476999999999995,0.060302699999999994,2021-05-03 11:36:52,
116,1620022012,-5.4609375,-2.2128906,5.2558593,-8.0566406,16.2963867,0.1831055,-0.1751953,0.0063476999999999995,0.060302699999999994,2021-05-03 11:36:52,
117,1620022012,-5.546875,-2.1855467999999996,5.2109375,-11.71875,16.2353515,0.366211,-0.1751953,0.0063476999999999995,0.060302699999999994,2021-05-03 11:36:52,
118,1620022012,-5.5097656,-2.2167967999999996,5.2792968,-11.0473632,12.8173828,4.5776367,-0.1751953,0.0063476999999999995,0.060302699999999994,2021-05-03 11:36:52,
119,1620022012,-5.4648437,-2.1757812000000003,5.2402343,-12.512207,13.0004882,1.4648437,-0.1751953,0.0063476999999999995,0.060302699999999994,2021-05-03 11:36:52,
120,1620022012,-5.5058594,-2.2265625,5.3574218,-13.5498047,16.2353515,4.150390600000001,-0.1751953,0.0063476999999999995,0.060302699999999994,2021-05-03 11:36:52,
121,1620022013,-5.4921875,-2.1992187000000003,5.3066406,-12.3901367,21.5454101,4.8828125,-0.1751953,0.0063476999999999995,0.060302699999999994,2021-05-03 11:36:53,
122,1620022013,-5.5429687,-2.2167967999999996,5.4042968,-14.0380859,18.4936523,3.7231445,-0.1751953,0.0063476999999999995,0.060302699999999994,2021-05-03 11:36:53,
123,1620022013,-5.4746094,-2.2265625,5.2558593,-16.3574218,15.197753899999999,1.7700195,-0.1751953,0.0063476999999999995,0.060302699999999994,2021-05-03 11:36:53,
124,1620022012,-5.4882812,-2.2128906,5.3574218,-15.136718700000001,15.075683499999998,-2.6245117000000002,-0.1751953,0.0063476999999999995,0.060302699999999994,2021-05-03 11:36:52,
125,1620022012,-5.5234375,-2.2167967999999996,5.2753906,-13.0615234,18.371582,-3.2348632,-0.1751953,0.0063476999999999995,0.060302699999999994,2021-05-03 11:36:52,
126,1620022012,-5.5351562,-2.1796875,5.3378906,-10.559082,15.5639648,-3.2958983999999996,-0.1751953,0.0063476999999999995,0.060302699999999994,2021-05-03 11:36:52,
127,1620022012,-5.5097656,-2.1894531,5.3574218,-9.399414,13.3666992,-1.1596678999999999,-0.1751953,0.0063476999999999995,0.060302699999999994,2021-05-03 11:36:52,
128,1620022012,-5.5410156,-2.1972656,5.265625,-6.713867200000001,13.122558600000001,3.540039,-0.1751953,0.0063476999999999995,0.060302699999999994,2021-05-03 11:36:52,
129,1620022012,-5.4570312,-2.2011717999999996,5.3066406,-8.300781200000001,18.2495117,6.2255859000000004,-0.1751953,0.0063476999999999995,0.060302699999999994,2021-05-03 11:36:52,
130,1620022012,-5.484375,-2.2441406,5.359375,-14.7094726,10.7421875,1.7089843999999996,-0.1751953,0.0063476999999999995,0.060302699999999994,2021-05-03 11:36:52,
131,1620022012,-5.5058594,-2.1953125,5.2988281,-11.1694336,4.5776367,0.0,-0.1751953,0.0063476999999999995,0.060302699999999994,2021-05-03 11:36:52,
132,1620022012,-5.5,-2.2265625,5.3007812,-7.2631836,12.512207,0.24414059999999999,-0.1751953,0.0063476999999999995,0.060302699999999994,2021-05-03 11:36:52,
133,1620022012,-5.4902344,-2.2148437000000003,5.3671875,-1.7089843999999996,18.2495117,1.953125,-0.1751953,0.0063476999999999995,0.060302699999999994,2021-05-03 11:36:52,
134,1620022012,-5.4941406,-2.1308592999999996,5.2832031,0.0610352,14.282226500000002,6.7749023,-0.1751953,0.0063476999999999995,0.060302699999999994,2021-05-03 11:36:52,
135,1620022012,-5.5585937,-2.1777342999999996,5.2539062,-0.6713868000000001,11.9628906,7.2631836,-0.1751953,0.0063476999999999995,0.060302699999999994,2021-05-03 11:36:52,
136,1620022012,-5.5449219,-2.1582031,5.2636718,-8.4838867,8.300781200000001,12.6342773,-0.1751953,0.0063476999999999995,0.060302699999999994,2021-05-03 11:36:52,
137,1620022012,-5.5273437,-2.1933592999999996,5.2441406,-15.9912109,11.9018555,12.4511719,-0.1751953,0.0063476999999999995,0.060302699999999994,2021-05-03 11:36:52,
138,1620022012,-5.4921875,-2.2421875,5.2402343,1.7089843999999996,24.5971679,5.859375,-0.1751953,0.0063476999999999995,0.060302699999999994,2021-05-03 11:36:52,
139,1620022012,-5.5097656,-2.1425781,5.2421875,-24.6582031,11.2915039,11.6577148,-0.1751953,0.0063476999999999995,0.060302699999999994,2021-05-03 11:36:52,
140,1620022012,-5.5625,-2.2441406,5.2773437,-19.8974609,31.4331054,-4.8828125,-0.1751953,0.0063476999999999995,0.060302699999999994,2021-05-03 11:36:52,
141,1620022012,-5.5390625,-2.1738281,5.3300781,-27.221679700000003,16.5405273,-3.7231445,-0.1751953,0.0063476999999999995,0.060302699999999994,2021-05-03 11:36:52,
142,1620022012,-5.6210937,-2.2851562000000003,5.3203125,-18.9208984,11.71875,0.24414059999999999,-0.1751953,0.0063476999999999995,0.060302699999999994,2021-05-03 11:36:52,
143,1620022012,-5.5117187,-2.1953125,5.2929687,-17.7612304,17.4560547,10.0097656,-0.1751953,0.0063476999999999995,0.060302699999999994,2021-05-03 11:36:52,
144,1620022012,-5.4960937,-2.2324217999999996,5.3320312,-21.3012695,21.7285156,10.7421875,-0.1751953,0.0063476999999999995,0.060302699999999994,2021-05-03 11:36:52,
145,1620022012,-5.5371094,-2.2285156,5.4375,-16.1743164,13.305664000000002,10.4980469,-0.1751953,0.0063476999999999995,0.060302699999999994,2021-05-03 11:36:52,
146,1620022013,-5.5585937,-2.2636717999999996,5.2480468,-11.5356445,11.352539,10.8642578,-0.1751953,0.0063476999999999995,0.060302699999999994,2021-05-03 11:36:53,
147,1620022013,-5.53125,-2.1894531,5.3027343,-8.5449219,12.6953125,10.925293,-0.1751953,0.0063476999999999995,0.060302699999999994,2021-05-03 11:36:53,
148,1620022013,-5.4980469,-2.1914062000000003,5.2773437,-9.1552734,10.0708007,16.1132812,-0.1751953,0.0063476999999999995,0.060302699999999994,2021-05-03 11:36:53,
149,1620022013,-5.5195312,-2.1738281,5.3320312,-6.713867200000001,9.3383789,11.9018555,-0.1751953,0.0063476999999999995,0.060302699999999994,2021-05-03 11:36:53,
150,1620022013,-5.4960937,-2.1621092999999996,5.2539062,-0.7324219,14.465332,5.7983398,-0.1751953,0.0063476999999999995,0.060302699999999994,2021-05-03 11:36:53,
151,1620022013,-5.5039062,-2.1992187000000003,5.2792968,-23.7426758,7.8125,7.2021484,-0.1751953,0.0063476999999999995,0.060302699999999994,2021-05-03 11:36:53,
152,1620022013,-5.5097656,-2.1738281,5.2871093,6.7749023,30.761718699999996,-9.765625,-0.1751953,0.0063476999999999995,0.060302699999999994,2021-05-03 11:36:53,
153,1620022013,-5.53125,-2.1699217999999996,5.3125,-21.4233398,19.6533203,-9.1552734,-0.1751953,0.0063476999999999995,0.060302699999999994,2021-05-03 11:36:53,
154,1620022013,-5.5078125,-2.1796875,5.2207031,-14.3432617,24.9023438,-14.9536133,-0.1751953,0.0063476999999999995,0.060302699999999994,2021-05-03 11:36:53,
155,1620022013,-5.5253906,-2.1835937000000003,5.2871093,-23.9257812,20.3857422,-12.5732422,-0.1751953,0.0063476999999999995,0.060302699999999994,2021-05-03 11:36:53,
156,1620022013,-5.5,-2.2167967999999996,5.3007812,-30.8227539,16.1132812,-9.5825195,-0.1751953,0.0063476999999999995,0.060302699999999994,2021-05-03 11:36:53,
157,1620022013,-5.5527344,-2.2304687000000003,5.2480468,-20.9960938,26.9165039,-11.2915039,-0.1751953,0.0063476999999999995,0.060302699999999994,2021-05-03 11:36:53,
158,1620022013,-5.5371094,-2.2207031,5.3691406,-20.7519531,13.0004882,-6.8969727,-0.1751953,0.0063476999999999995,0.060302699999999994,2021-05-03 11:36:53,
159,1620022013,-5.5039062,-2.2890625,5.3261718,-10.8642578,10.4370117,-4.8828125,-0.1751953,0.0063476999999999995,0.060302699999999994,2021-05-03 11:36:53,
160,1620022013,-5.5605469,-2.2988281,5.3242187,-0.8544921999999998,17.8222656,-6.591796899999999,-0.1751953,0.0063476999999999995,0.060302699999999994,2021-05-03 11:36:53,
161,1620022013,-5.5253906,-2.2382812000000003,5.3632812,-4.7607422,11.1083984,-12.5732422,-0.1751953,0.0063476999999999995,0.060302699999999994,2021-05-03 11:36:53,
162,1620022013,-5.5820312,-2.2558592999999996,5.3554687,3.3569336000000005,3.4790038999999995,-15.3808593,-0.1751953,0.0063476999999999995,0.060302699999999994,2021-05-03 11:36:53,
163,1620022013,-5.6015625,-2.2167967999999996,5.2871093,15.136718700000001,5.0048828,-8.1176757,-0.1751953,0.0063476999999999995,0.060302699999999994,2021-05-03 11:36:53,
164,1620022013,-5.4921875,-2.2207031,5.2617187,9.8876953,3.3569336000000005,0.4272460999999999,-0.1751953,0.0063476999999999995,0.060302699999999994,2021-05-03 11:36:53,
165,1620022013,-5.5546875,-2.171875,5.3339843,22.1557617,3.6621094,1.7089843999999996,-0.1751953,0.0063476999999999995,0.060302699999999994,2021-05-03 11:36:53,
166,1620022013,-5.4921875,-2.1953125,5.2890625,21.3623047,-10.3759765,5.6762695,-0.1751953,0.0063476999999999995,0.060302699999999994,2021-05-03 11:36:53,
167,1620022013,-5.46875,-2.1894531,5.2949218,24.0478515,-10.9863281,6.0424804000000005,-0.1751953,0.0063476999999999995,0.060302699999999994,2021-05-03 11:36:53,
168,1620022013,-5.5371094,-2.2382812000000003,5.234375,23.1933593,3.2958983999999996,3.7231445,-0.1751953,0.0063476999999999995,0.060302699999999994,2021-05-03 11:36:53,
169,1620022013,-5.5351562,-2.2363281,5.2832031,13.671875,7.0190429000000005,-4.4555664,-0.1751953,0.0063476999999999995,0.060302699999999994,2021-05-03 11:36:53,
170,1620022013,-5.4863281,-2.2734375,5.2851562,10.925293,6.713867200000001,-15.5029297,-0.1751953,0.0063476999999999995,0.060302699999999994,2021-05-03 11:36:53,
171,1620022013,-5.5039062,-2.2089842999999996,5.2890625,8.8500977,2.5634765,-15.5029297,-0.1751953,0.0063476999999999995,0.060302699999999994,2021-05-03 11:36:53,
172,1620022013,-5.5039062,-2.09375,5.2304687,9.4604492,16.4794922,-15.869140599999998,-0.1751953,0.0063476999999999995,0.060302699999999994,2021-05-03 11:36:53,
173,1620022013,-5.5195312,-2.2226562000000003,5.2324218,-2.8686523,18.7377929,-10.6811523,-0.1751953,0.0063476999999999995,0.060302699999999994,2021-05-03 11:36:53,
174,1620022013,-5.5234375,-2.1582031,5.2597656,-8.4838867,17.578125,-10.925293,-0.1751953,0.0063476999999999995,0.060302699999999994,2021-05-03 11:36:53,
175,1620022013,-5.5175781,-2.2167967999999996,5.2714843,-33.3251953,27.8930664,-5.0659179000000005,-0.1751953,0.0063476999999999995,0.060302699999999994,2021-05-03 11:36:53,
176,1620022013,-5.5175781,-2.2675781,5.2792968,-37.2924804,23.071289,-6.3476562,-0.1751953,0.0063476999999999995,0.060302699999999994,2021-05-03 11:36:53,
177,1620022013,-5.5292969,-2.1953125,5.3320312,-32.1655273,23.1933593,-5.6762695,-0.1751953,0.0063476999999999995,0.060302699999999994,2021-05-03 11:36:53,
178,1620022014,-5.5820312,-2.2011717999999996,5.3632812,-21.118164,24.9633789,2.8686523,-0.1751953,0.0063476999999999995,0.060302699999999994,2021-05-03 11:36:54,
179,1620022014,-5.515625,-2.1835937000000003,5.3847656,-19.2871093,15.3808593,10.3759765,-0.1751953,0.0063476999999999995,0.060302699999999994,2021-05-03 11:36:54,
180,1620022014,-5.5195312,-2.234375,5.328125,-7.1411131999999995,11.5966797,11.9018555,-0.1751953,0.0063476999999999995,0.060302699999999994,2021-05-03 11:36:54,
181,1620022013,-5.4765625,-2.2441406,5.2753906,-8.0566406,3.6621094,13.6108398,-0.1751953,0.0063476999999999995,0.060302699999999994,2021-05-03 11:36:53,
182,1620022013,-5.4941406,-2.2539062000000003,5.3496093,-4.0893554,2.5634765,10.9863281,-0.1751953,0.0063476999999999995,0.060302699999999994,2021-05-03 11:36:53,
183,1620022013,-5.5429687,-2.2382812000000003,5.3496093,12.878418,11.8408203,10.1928711,-0.1751953,0.0063476999999999995,0.060302699999999994,2021-05-03 11:36:53,
184,1620022013,-5.5195312,-2.234375,5.3085937,8.1176757,10.6201172,14.0380859,-0.1751953,0.0063476999999999995,0.060302699999999994,2021-05-03 11:36:53,
185,1620022013,-5.4707031,-2.2851562000000003,5.2558593,12.3291015,10.559082,0.6713868000000001,-0.1751953,0.0063476999999999995,0.060302699999999994,2021-05-03 11:36:53,
186,1620022013,-5.5292969,-2.2519531,5.2441406,2.9296875,-2.6855469,-5.4321289,-0.1751953,0.0063476999999999995,0.060302699999999994,2021-05-03 11:36:53,
187,1620022013,-5.4335937,-2.1914062000000003,5.2695312,9.3383789,8.1176757,-9.5825195,-0.1751953,0.0063476999999999995,0.060302699999999994,2021-05-03 11:36:53,
188,1620022013,-5.4492187,-2.0878906,5.3027343,3.8452148,14.5263672,-6.713867200000001,-0.1751953,0.0063476999999999995,0.060302699999999994,2021-05-03 11:36:53,
189,1620022013,-5.4902344,-2.1679687000000003,5.2792968,0.6713868000000001,10.3149414,-7.2021484,-0.1751953,0.0063476999999999995,0.060302699999999994,2021-05-03 11:36:53,
190,1620022013,-5.5019531,-2.1210937000000003,5.2714843,4.4555664,8.1787109,-5.9204102,-0.1751953,0.0063476999999999995,0.060302699999999994,2021-05-03 11:36:53,
191,1620022013,-5.5390625,-2.2402342999999996,5.2695312,-4.2114257,0.3051758,-4.5776367,-0.1751953,0.0063476999999999995,0.060302699999999994,2021-05-03 11:36:53,
192,1620022013,-5.4667969,-2.1933592999999996,5.3066406,-3.6621094,15.6860351,-7.3242187,-0.1751953,0.0063476999999999995,0.060302699999999994,2021-05-03 11:36:53,
193,1620022013,-5.5175781,-2.3378906,5.1855468,-11.4135742,17.0288085,-10.925293,-0.1751953,0.0063476999999999995,0.060302699999999994,2021-05-03 11:36:53,
194,1620022013,-5.5859375,-2.234375,5.2792968,-11.2915039,12.2680664,-22.8881836,-0.1751953,0.0063476999999999995,0.060302699999999994,2021-05-03 11:36:53,
195,1620022013,-5.546875,-2.2460937000000003,5.2382812,-4.150390600000001,24.7192383,-15.3808593,-0.1751953,0.0063476999999999995,0.060302699999999994,2021-05-03 11:36:53,
196,1620022013,-5.5410156,-2.2148437000000003,5.2695312,-19.6533203,20.6909179,-3.1127929,-0.1751953,0.0063476999999999995,0.060302699999999994,2021-05-03 11:36:53,
197,1620022013,-5.5820312,-2.203125,5.1796875,-13.305664000000002,22.9492188,5.5541992,-0.1751953,0.0063476999999999995,0.060302699999999994,2021-05-03 11:36:53,
198,1620022013,-5.5527344,-2.1074217999999996,5.2265625,-28.9306641,23.8647461,20.8740234,-0.1751953,0.0063476999999999995,0.060302699999999994,2021-05-03 11:36:53,
199,1620022013,-5.5253906,-2.21875,5.1992187,-52.5512695,2.9296875,26.9775391,-0.1751953,0.0063476999999999995,0.060302699999999994,2021-05-03 11:36:53,
200,1620022013,-5.5117187,-2.1289062000000003,5.2871093,-35.15625,36.4990234,27.34375,-0.1751953,0.0063476999999999995,0.060302699999999994,2021-05-03 11:36:53,
201,1620022013,-5.5410156,-2.2851562000000003,5.2578125,-57.98339839999999,23.4375,33.8134765,-0.1751953,0.0063476999999999995,0.060302699999999994,2021-05-03 11:36:53,
202,1620022013,-5.5234375,-2.2207031,5.1347656,-43.6401367,40.8935547,23.6816406,-0.1751953,0.0063476999999999995,0.060302699999999994,2021-05-03 11:36:53,
203,1620022013,-5.5507812,-2.3125,5.2226562,-58.1665039,41.1376953,20.8740234,-0.1751953,0.0063476999999999995,0.060302699999999994,2021-05-03 11:36:53,
204,1620022013,-5.5410156,-2.2441406,5.2578125,-65.12451170000001,49.1943359,14.221191399999999,-0.1751953,0.0063476999999999995,0.060302699999999994,2021-05-03 11:36:53,
205,1620022013,-5.4882812,-2.1640625,5.2929687,-61.0351562,48.828125,12.5732422,-0.1751953,0.0063476999999999995,0.060302699999999994,2021-05-03 11:36:53,
206,1620022014,-5.5234375,-2.1699217999999996,5.4511719,-75.50048829999999,13.6108398,15.136718700000001,-0.1751953,0.0063476999999999995,0.060302699999999994,2021-05-03 11:36:54,
207,1620022014,-5.4394531,-2.2265625,5.4316406,-18.371582,30.2734375,-0.3051758,-0.1751953,0.0063476999999999995,0.060302699999999994,2021-05-03 11:36:54,
208,1620022014,-5.4609375,-2.2382812000000003,5.5410156,-32.714843699999996,0.5493164,9.765625,-0.1751953,0.0063476999999999995,0.060302699999999994,2021-05-03 11:36:54,
209,1620022014,-5.4570312,-2.3125,5.5097656,28.3203125,12.8173828,-15.258789000000002,-0.1751953,0.0063476999999999995,0.060302699999999994,2021-05-03 11:36:54,
210,1620022014,-5.5058594,-2.1933592999999996,5.3496093,100.0976562,-34.6679687,-63.537597600000005,-0.1751953,0.0063476999999999995,0.060302699999999994,2021-05-03 11:36:54,
211,1620022014,-5.5273437,-2.2402342999999996,5.3046875,110.3515625,-39.855957000000004,-52.3071289,-0.1751953,0.0063476999999999995,0.060302699999999994,2021-05-03 11:36:54,
212,1620022014,-5.5234375,-2.1503906,5.1679687,101.9287109,-35.3393554,-49.987792999999996,-0.1751953,0.0063476999999999995,0.060302699999999994,2021-05-03 11:36:54,
213,1620022014,-5.5957031,-2.1992187000000003,5.1171875,86.7919922,-26.245117200000003,-37.902832000000004,-0.1751953,0.0063476999999999995,0.060302699999999994,2021-05-03 11:36:54,
214,1620022014,-5.640625,-2.2148437000000003,5.1640625,73.05908199999999,-17.4560547,-27.038574199999996,-0.1751953,0.0063476999999999995,0.060302699999999994,2021-05-03 11:36:54,
215,1620022014,-5.609375,-2.2304687000000003,5.1894531,52.673339799999994,-14.099120999999998,-11.1083984,-0.1751953,0.0063476999999999995,0.060302699999999994,2021-05-03 11:36:54,
216,1620022014,-5.5527344,-2.1503906,5.1035156,25.8789062,-3.9672852,-2.1362304,-0.1751953,0.0063476999999999995,0.060302699999999994,2021-05-03 11:36:54,
217,1620022014,-5.5820312,-2.1425781,5.1289062,0.0,5.1879882,15.136718700000001,-0.1751953,0.0063476999999999995,0.060302699999999994,2021-05-03 11:36:54,
218,1620022014,-5.5761719,-2.140625,5.1953125,-22.8271484,18.6767578,31.921386699999996,-0.1751953,0.0063476999999999995,0.060302699999999994,2021-05-03 11:36:54,
219,1620022014,-5.5371094,-2.1230467999999996,5.1542968,-47.0581054,28.808593699999996,45.5322265,-0.1751953,0.0063476999999999995,0.060302699999999994,2021-05-03 11:36:54,
220,1620022014,-5.3945312,-2.1640625,5.2285156,-70.4345703,34.9121094,53.2836914,-0.1751953,0.0063476999999999995,0.060302699999999994,2021-05-03 11:36:54,
221,1620022014,-5.4785156,-2.1445312000000003,5.21875,-90.14892569999999,44.1894531,55.05371089999999,-0.1751953,0.0063476999999999995,0.060302699999999994,2021-05-03 11:36:54,
222,1620022014,-5.4042968,-2.2246092999999996,5.2285156,-101.19628900000001,50.5371094,53.894043,-0.1751953,0.0063476999999999995,0.060302699999999994,2021-05-03 11:36:54,
223,1620022014,-5.3964843,-2.1816406,5.2773437,-108.33740230000001,54.1381836,43.5180664,-0.1751953,0.0063476999999999995,0.060302699999999994,2021-05-03 11:36:54,
224,1620022014,-5.3789062,-2.1992187000000003,5.3144531,-110.77880859999999,58.837890599999994,30.8837891,-0.1751953,0.0063476999999999995,0.060302699999999994,2021-05-03 11:36:54,
225,1620022014,-5.4179687,-2.1816406,5.3730468,-102.7221679,56.701660100000005,18.1884765,-0.1751953,0.0063476999999999995,0.060302699999999994,2021-05-03 11:36:54,
226,1620022014,-5.4199219,-2.1992187000000003,5.4042968,-86.7919922,56.640625,7.0190429000000005,-0.1751953,0.0063476999999999995,0.060302699999999994,2021-05-03 11:36:54,
227,1620022014,-5.4335937,-2.2421875,5.3867187,-73.66943359999999,49.621582000000004,-1.4648437,-0.1751953,0.0063476999999999995,0.060302699999999994,2021-05-03 11:36:54,
228,1620022014,-5.4765625,-2.2226562000000003,5.4414062,-60.3027343,37.2924804,-6.1035156,-0.1751953,0.0063476999999999995,0.060302699999999994,2021-05-03 11:36:54,
229,1620022014,-5.5371094,-2.2441406,5.4160156,-42.2363281,26.4282226,-13.305664000000002,-0.1751953,0.0063476999999999995,0.060302699999999994,2021-05-03 11:36:54,
230,1620022014,-5.5546875,-2.3085937000000003,5.4238281,-22.5219726,24.7192383,-12.3291015,-0.1751953,0.0063476999999999995,0.060302699999999994,2021-05-03 11:36:54,
231,1620022014,-5.5332031,-2.3417967999999996,5.3945312,-2.0751953000000003,21.484375,-15.258789000000002,-0.1751953,0.0063476999999999995,0.060302699999999994,2021-05-03 11:36:54,
232,1620022014,-5.5292969,-2.3183592999999996,5.4179687,9.6435547,-1.7700195,-22.7050781,-0.1751953,0.0063476999999999995,0.060302699999999994,2021-05-03 11:36:54,
233,1620022014,-5.5761719,-2.3066406,5.2929687,37.0483398,-2.0141601000000002,-29.602050800000004,-0.1751953,0.0063476999999999995,0.060302699999999994,2021-05-03 11:36:54,
234,1620022014,-5.578125,-2.2089842999999996,5.3945312,42.3583984,1.2207031000000002,-14.282226500000002,-0.1751953,0.0063476999999999995,0.060302699999999994,2021-05-03 11:36:54,
235,1620022014,-5.5527344,-2.2480467999999996,5.3671875,46.508789,-16.1132812,-5.7373047,-0.1751953,0.0063476999999999995,0.060302699999999994,2021-05-03 11:36:54,
236,1620022014,-5.5625,-2.1894531,5.2734375,59.2041015,-28.259277299999997,1.3427733999999998,-0.1751953,0.0063476999999999995,0.060302699999999994,2021-05-03 11:36:54,
237,1620022014,-5.4824219,-2.2441406,5.2753906,57.00683589999999,-21.9116211,8.9111328,-0.1751953,0.0063476999999999995,0.060302699999999994,2021-05-03 11:36:54,
238,1620022014,-5.4414062,-2.2265625,5.2578125,57.434082,-6.1645507,7.0190429000000005,-0.1751953,0.0063476999999999995,0.060302699999999994,2021-05-03 11:36:54,
239,1620022015,-5.4746094,-2.2792967999999996,5.1289062,26.306152299999997,-8.8500977,-2.0141601000000002,-0.1751953,0.0063476999999999995,0.060302699999999994,2021-05-03 11:36:55,
240,1620022015,-5.4824219,-2.28125,5.1875,15.7470703,-8.605957,-20.0805664,-0.1751953,0.0063476999999999995,0.060302699999999994,2021-05-03 11:36:55,
241,1620022014,-5.5800781,-2.2636717999999996,5.1992187,2.9296875,-3.90625,-23.5595703,-0.1751953,0.0063476999999999995,0.060302699999999994,2021-05-03 11:36:54,
242,1620022014,-5.4902344,-2.1855467999999996,5.1503906,13.3666992,36.9873047,-8.6669922,-0.1751953,0.0063476999999999995,0.060302699999999994,2021-05-03 11:36:54,
243,1620022014,-5.46875,-2.1660156,5.1953125,-24.1088867,30.395507799999997,-0.0610352,-0.1751953,0.0063476999999999995,0.060302699999999994,2021-05-03 11:36:54,
244,1620022014,-5.5195312,-2.1699217999999996,5.1953125,-32.6538086,15.869140599999998,-11.1083984,-0.1751953,0.0063476999999999995,0.060302699999999994,2021-05-03 11:36:54,
245,1620022014,-5.5214844,-2.2988281,5.3476562,-59.3261718,23.9868164,16.6015625,-0.1751953,0.0063476999999999995,0.060302699999999994,2021-05-03 11:36:54,
246,1620022014,-5.5078125,-2.2695312000000003,5.2929687,-46.691894500000004,36.8652344,13.0615234,-0.1751953,0.0063476999999999995,0.060302699999999994,2021-05-03 11:36:54,
247,1620022014,-5.6015625,-2.2070312000000003,5.2402343,-57.8002929,40.649414,29.5410156,-0.1751953,0.0063476999999999995,0.060302699999999994,2021-05-03 11:36:54,
248,1620022014,-5.5234375,-2.2382812000000003,5.3671875,-31.9824219,38.6352539,25.390625,-0.1751953,0.0063476999999999995,0.060302699999999994,2021-05-03 11:36:54,
249,1620022014,-5.5195312,-2.1816406,5.3652343,-39.2456054,6.713867200000001,28.0761718,-0.1751953,0.0063476999999999995,0.060302699999999994,2021-05-03 11:36:54,
250,1620022014,-5.5097656,-2.2265625,5.359375,-9.4604492,17.1508789,24.6582031,-0.1751953,0.0063476999999999995,0.060302699999999994,2021-05-03 11:36:54,
251,1620022014,-5.4863281,-2.2070312000000003,5.328125,-12.878418,15.8081054,29.418945299999997,-0.1751953,0.0063476999999999995,0.060302699999999994,2021-05-03 11:36:54,
252,1620022014,-5.5039062,-2.2695312000000003,5.2871093,-4.9438477,15.4418945,20.8129883,-0.1751953,0.0063476999999999995,0.060302699999999994,2021-05-03 11:36:54,
253,1620022014,-5.4550781,-2.25,5.3535156,1.0375976,4.0283203,7.0190429000000005,-0.1751953,0.0063476999999999995,0.060302699999999994,2021-05-03 11:36:54,
254,1620022014,-5.4902344,-2.1953125,5.3710937,6.2866211,-11.7797851,-0.5493164,-0.1751953,0.0063476999999999995,0.060302699999999994,2021-05-03 11:36:54,
255,1620022014,-5.4316406,-2.1855467999999996,5.265625,18.7377929,12.0239257,-9.2773437,-0.1751953,0.0063476999999999995,0.060302699999999994,2021-05-03 11:36:54,
256,1620022014,-5.4003906,-2.2617187000000003,5.2636718,15.258789000000002,10.9863281,-21.6064453,-0.1751953,0.0063476999999999995,0.060302699999999994,2021-05-03 11:36:54,
257,1620022014,-5.4824219,-2.2285156,5.296875,22.6440429,5.3100586,-43.7011719,-0.1751953,0.0063476999999999995,0.060302699999999994,2021-05-03 11:36:54,
258,1620022014,-5.4921875,-2.1621092999999996,5.3339843,19.3481445,0.9155274,-43.1518554,-0.1751953,0.0063476999999999995,0.060302699999999994,2021-05-03 11:36:54,
259,1620022014,-5.5175781,-2.2050781,5.2246093,22.0947265,10.9863281,-38.696289,-0.1751953,0.0063476999999999995,0.060302699999999994,2021-05-03 11:36:54,
260,1620022014,-5.4785156,-2.1484375,5.2675781,16.8457031,11.9018555,-36.9873047,-0.1751953,0.0063476999999999995,0.060302699999999994,2021-05-03 11:36:54,
261,1620022014,-5.5820312,-2.1894531,5.1816406,8.1787109,3.6621094,-37.5366211,-0.1751953,0.0063476999999999995,0.060302699999999994,2021-05-03 11:36:54,
262,1620022014,-5.6015625,-2.2441406,5.234375,1.0986328,11.1083984,-27.465820299999997,-0.1751953,0.0063476999999999995,0.060302699999999994,2021-05-03 11:36:54,
263,1620022015,-5.5585937,-2.2324217999999996,5.2851562,-5.3100586,19.2871093,-19.4702148,-0.1751953,0.0063476999999999995,0.060302699999999994,2021-05-03 11:36:55,
264,1620022015,-5.6113281,-2.28125,5.2265625,-12.0849609,12.2070312,-12.0849609,-0.1751953,0.0063476999999999995,0.060302699999999994,2021-05-03 11:36:55,
265,1620022015,-5.6503906,-2.2910156,5.3222656,-13.0615234,13.916015599999998,-6.2255859000000004,-0.1751953,0.0063476999999999995,0.060302699999999994,2021-05-03 11:36:55,
266,1620022015,-5.5664062,-2.2988281,5.2421875,-16.418457,18.6157226,8.605957,-0.1751953,0.0063476999999999995,0.060302699999999994,2021-05-03 11:36:55,
267,1620022015,-5.5800781,-2.2207031,5.3066406,-33.5083008,18.4326172,22.0336914,-0.1751953,0.0063476999999999995,0.060302699999999994,2021-05-03 11:36:55,
268,1620022015,-5.5820312,-2.2285156,5.3066406,-18.9819336,19.4702148,26.0620117,-0.1751953,0.0063476999999999995,0.060302699999999994,2021-05-03 11:36:55,
269,1620022015,-5.5390625,-2.2011717999999996,5.3476562,-39.2456054,6.0424804000000005,40.5273437,-0.1751953,0.0063476999999999995,0.060302699999999994,2021-05-03 11:36:55,
270,1620022015,-5.5390625,-2.1796875,5.2929687,-29.8461914,25.3295898,41.076660100000005,-0.1751953,0.0063476999999999995,0.060302699999999994,2021-05-03 11:36:55,
271,1620022015,-5.4589844,-2.2695312000000003,5.3203125,-34.8510742,19.2871093,38.2080078,-0.1751953,0.0063476999999999995,0.060302699999999994,2021-05-03 11:36:55,
272,1620022015,-5.4003906,-2.234375,5.2910156,-29.1748046,18.6767578,22.8881836,-0.1751953,0.0063476999999999995,0.060302699999999994,2021-05-03 11:36:55,
273,1620022015,-5.4023437,-2.2382812000000003,5.3300781,-26.7944336,18.3105468,15.258789000000002,-0.1751953,0.0063476999999999995,0.060302699999999994,2021-05-03 11:36:55,
274,1620022015,-5.3730468,-2.1484375,5.4277344,-18.1274414,23.3154297,-0.366211,-0.1751953,0.0063476999999999995,0.060302699999999994,2021-05-03 11:36:55,
275,1620022015,-5.4765625,-2.2460937000000003,5.3320312,-7.1411131999999995,25.7568359,-3.4179687000000007,-0.1751953,0.0063476999999999995,0.060302699999999994,2021-05-03 11:36:55,
276,1620022015,-5.4199219,-2.1230467999999996,5.2636718,-15.4418945,18.9208984,-12.1459961,-0.1751953,0.0063476999999999995,0.060302699999999994,2021-05-03 11:36:55,
277,1620022015,-5.4199219,-2.1816406,5.3046875,-5.7983398,13.7329101,-17.8833008,-0.1751953,0.0063476999999999995,0.060302699999999994,2021-05-03 11:36:55,
278,1620022015,-5.453125,-2.2265625,5.3378906,-5.2490234000000004,6.713867200000001,-21.9116211,-0.1751953,0.0063476999999999995,0.060302699999999994,2021-05-03 11:36:55,
279,1620022015,-5.5097656,-2.2480467999999996,5.3574218,-4.4555664,10.8032226,-28.137207,-0.1751953,0.0063476999999999995,0.060302699999999994,2021-05-03 11:36:55,
280,1620022015,-5.6152344,-2.2519531,5.2890625,7.080078100000001,9.2773437,-24.5971679,-0.1751953,0.0063476999999999995,0.060302699999999994,2021-05-03 11:36:55,
281,1620022015,-5.5976562,-2.2519531,5.2597656,3.4179687000000007,7.690429700000001,-13.3666992,-0.1751953,0.0063476999999999995,0.060302699999999994,2021-05-03 11:36:55,
282,1620022015,-5.5976562,-2.2773437000000003,5.2675781,8.2397461,9.765625,4.150390600000001,-0.1751953,0.0063476999999999995,0.060302699999999994,2021-05-03 11:36:55,
283,1620022015,-5.5722656,-2.2089842999999996,5.2617187,6.7749023,6.958007799999999,12.1459961,-0.1751953,0.0063476999999999995,0.060302699999999994,2021-05-03 11:36:55,
284,1620022015,-5.546875,-2.2597656,5.2949218,1.6479491999999998,-2.9907227,18.4326172,-0.1751953,0.0063476999999999995,0.060302699999999994,2021-05-03 11:36:55,
285,1620022015,-5.46875,-2.2441406,5.2226562,0.24414059999999999,0.8544921999999998,15.3198242,-0.1751953,0.0063476999999999995,0.060302699999999994,2021-05-03 11:36:55,
286,1620022015,-5.515625,-2.3125,5.2285156,-2.0141601000000002,12.7563476,17.9443359,-0.1751953,0.0063476999999999995,0.060302699999999994,2021-05-03 11:36:55,
287,1620022015,-5.53125,-2.2402342999999996,5.21875,-4.7607422,11.0473632,16.662597599999998,-0.1751953,0.0063476999999999995,0.060302699999999994,2021-05-03 11:36:55,
288,1620022015,-5.5097656,-2.2128906,5.2363281,-2.2583007,14.160156200000001,11.1083984,-0.1751953,0.0063476999999999995,0.060302699999999994,2021-05-03 11:36:55,
289,1620022015,-5.4667969,-2.2011717999999996,5.2480468,-16.418457,10.3759765,15.3808593,-0.1751953,0.0063476999999999995,0.060302699999999994,2021-05-03 11:36:55,
290,1620022015,-5.4628906,-2.1582031,5.1855468,-13.427734400000002,19.8364258,16.7846679,-0.1751953,0.0063476999999999995,0.060302699999999994,2021-05-03 11:36:55,
291,1620022015,-5.4433594,-2.1347656,5.1328125,-25.8789062,16.418457,17.3339843,-0.1751953,0.0063476999999999995,0.060302699999999994,2021-05-03 11:36:55,
292,1620022015,-5.4902344,-2.1367187000000003,5.2695312,-22.6440429,21.9726562,12.9394531,-0.1751953,0.0063476999999999995,0.060302699999999994,2021-05-03 11:36:55,
293,1620022015,-5.4824219,-2.2089842999999996,5.234375,-40.100097600000005,19.5922851,12.3901367,-0.1751953,0.0063476999999999995,0.060302699999999994,2021-05-03 11:36:55,
294,1620022015,-5.46875,-2.2617187000000003,5.3085937,-30.4565429,31.738281199999996,-2.9296875,-0.1751953,0.0063476999999999995,0.060302699999999994,2021-05-03 11:36:55,
295,1620022015,-5.4394531,-2.2480467999999996,5.2929687,-43.1518554,22.2167968,-6.4697265,-0.1751953,0.0063476999999999995,0.060302699999999994,2021-05-03 11:36:55,
296,1620022016,-5.4472656,-2.2519531,5.4082031,-36.2548828,27.5878906,-21.8505859,-0.1751953,0.0063476999999999995,0.060302699999999994,2021-05-03 11:36:56,
297,1620022016,-5.5058594,-2.2617187000000003,5.421875,-32.9589844,24.2919922,-24.0478515,-0.1751953,0.0063476999999999995,0.060302699999999994,2021-05-03 11:36:56,
298,1620022016,-5.4726562,-2.2070312000000003,5.4042968,-14.221191399999999,28.5644531,-23.0102539,-0.1751953,0.0063476999999999995,0.060302699999999994,2021-05-03 11:36:56,
299,1620022015,-5.5097656,-2.2539062000000003,5.3183593,-9.5825195,28.3203125,-20.2636718,-0.1751953,0.0063476999999999995,0.060302699999999994,2021-05-03 11:36:55,
300,1620022015,-5.5429687,-2.2539062000000003,5.3007812,-8.1787109,13.0004882,-14.282226500000002,-0.1751953,0.0063476999999999995,0.060302699999999994,2021-05-03 11:36:55,
301,1620022015,-5.5214844,-2.2910156,5.3847656,1.586914,2.6855469,-8.0566406,-0.1751953,0.0063476999999999995,0.060302699999999994,2021-05-03 11:36:55,
302,1620022015,-5.5585937,-2.2480467999999996,5.3847656,10.8032226,5.859375,-4.5166015,-0.1751953,0.0063476999999999995,0.060302699999999994,2021-05-03 11:36:55,
303,1620022015,-5.5761719,-2.3027342999999996,5.3515625,9.7045898,4.5166015,-0.12207029999999999,-0.1751953,0.0063476999999999995,0.060302699999999994,2021-05-03 11:36:55,
304,1620022015,-5.5332031,-2.2871092999999996,5.2128906,14.4042968,5.0659179000000005,-3.9672852,-0.1751953,0.0063476999999999995,0.060302699999999994,2021-05-03 11:36:55,
305,1620022015,-5.5332031,-2.2753906,5.2675781,14.282226500000002,1.1596678999999999,1.586914,-0.1751953,0.0063476999999999995,0.060302699999999994,2021-05-03 11:36:55,
306,1620022015,-5.5039062,-2.2695312000000003,5.2695312,14.465332,-3.3569336000000005,-0.12207029999999999,-0.1751953,0.0063476999999999995,0.060302699999999994,2021-05-03 11:36:55,
307,1620022015,-5.5429687,-2.2148437000000003,5.2089843,16.662597599999998,6.5307617,3.9672852,-0.1751953,0.0063476999999999995,0.060302699999999994,2021-05-03 11:36:55,
308,1620022015,-5.5488281,-2.2167967999999996,5.2617187,12.512207,5.0048828,11.71875,-0.1751953,0.0063476999999999995,0.060302699999999994,2021-05-03 11:36:55,
309,1620022015,-5.53125,-2.1953125,5.2929687,15.5639648,2.3803711,10.4370117,-0.1751953,0.0063476999999999995,0.060302699999999994,2021-05-03 11:36:55,
310,1620022015,-5.5175781,-2.2324217999999996,5.2851562,11.6577148,1.1596678999999999,11.0473632,-0.1751953,0.0063476999999999995,0.060302699999999994,2021-05-03 11:36:55,
311,1620022015,-5.4746094,-2.1835937000000003,5.2871093,3.0517578,7.629394500000001,7.3852539,-0.1751953,0.0063476999999999995,0.060302699999999994,2021-05-03 11:36:55,
312,1620022015,-5.4726562,-2.2050781,5.1777343,2.1362304,9.0942382,6.7749023,-0.1751953,0.0063476999999999995,0.060302699999999994,2021-05-03 11:36:55,
313,1620022015,-5.5195312,-2.203125,5.28125,-6.3476562,7.5073242,6.5307617,-0.1751953,0.0063476999999999995,0.060302699999999994,2021-05-03 11:36:55,
314,1620022015,-5.5058594,-2.1660156,5.3066406,-5.4321289,16.7846679,3.4790038999999995,-0.1751953,0.0063476999999999995,0.060302699999999994,2021-05-03 11:36:55,
315,1620022015,-5.4785156,-2.2441406,5.2558593,-33.3862304,27.34375,-32.4096679,-0.1751953,0.0063476999999999995,0.060302699999999994,2021-05-03 11:36:55,
316,1620022015,-5.546875,-2.2792967999999996,5.3222656,-31.738281199999996,34.1186523,-24.2919922,-0.1751953,0.0063476999999999995,0.060302699999999994,2021-05-03 11:36:55,
317,1620022015,-5.578125,-2.3164062000000003,5.3300781,-28.3203125,31.188964799999997,-10.6811523,-0.1751953,0.0063476999999999995,0.060302699999999994,2021-05-03 11:36:55,
318,1620022015,-5.5644531,-2.2890625,5.3867187,-21.5454101,22.3999023,-7.446289,-0.1751953,0.0063476999999999995,0.060302699999999994,2021-05-03 11:36:55,
319,1620022015,-5.5820312,-2.2753906,5.2988281,-21.2402343,11.2915039,2.5634765,-0.1751953,0.0063476999999999995,0.060302699999999994,2021-05-03 11:36:55,
320,1620022015,-5.5820312,-2.28125,5.265625,-11.71875,15.6860351,10.9863281,-0.1751953,0.0063476999999999995,0.060302699999999994,2021-05-03 11:36:55,
321,1620022016,-5.5058594,-2.3203125,5.375,-10.0708007,12.1459961,17.4560547,-0.1751953,0.0063476999999999995,0.060302699999999994,2021-05-03 11:36:56,
322,1620022016,-5.5214844,-2.3027342999999996,5.3417968,-5.0659179000000005,7.2021484,18.1884765,-0.1751953,0.0063476999999999995,0.060302699999999994,2021-05-03 11:36:56,
323,1620022016,-5.5175781,-2.28125,5.2363281,-3.7841796999999997,7.2021484,21.0571289,-0.1751953,0.0063476999999999995,0.060302699999999994,2021-05-03 11:36:56,
324,1620022016,-5.4863281,-2.2265625,5.296875,-4.3334961,10.4980469,26.184082,-0.1751953,0.0063476999999999995,0.060302699999999994,2021-05-03 11:36:56,
325,1620022016,-5.5234375,-2.2851562000000003,5.2773437,-2.0141601000000002,4.0283203,26.9165039,-0.1751953,0.0063476999999999995,0.060302699999999994,2021-05-03 11:36:56,
326,1620022016,-5.4238281,-2.2832031,5.3085937,-0.3051758,-0.0610352,16.3574218,-0.1751953,0.0063476999999999995,0.060302699999999994,2021-05-03 11:36:56,
327,1620022016,-5.4648437,-2.2792967999999996,5.4355469,6.2255859000000004,-2.1362304,8.8500977,-0.1751953,0.0063476999999999995,0.060302699999999994,2021-05-03 11:36:56,
328,1620022016,-5.3691406,-2.2832031,5.3964843,11.7797851,8.2397461,5.0659179000000005,-0.1751953,0.0063476999999999995,0.060302699999999994,2021-05-03 11:36:56,
329,1620022016,-5.4277344,-2.2207031,5.3769531,14.465332,8.3618164,-4.5166015,-0.1751953,0.0063476999999999995,0.060302699999999994,2021-05-03 11:36:56,
330,1620022016,-5.4707031,-2.1367187000000003,5.2695312,17.0288085,5.7373047,-15.5639648,-0.1751953,0.0063476999999999995,0.060302699999999994,2021-05-03 11:36:56,
331,1620022016,-5.4882812,-2.1914062000000003,5.2578125,17.3339843,4.2724609000000004,-18.8598633,-0.1751953,0.0063476999999999995,0.060302699999999994,2021-05-03 11:36:56,
332,1620022016,-5.4550781,-2.1582031,5.15625,11.2304687,11.0473632,-13.7939453,-0.1751953,0.0063476999999999995,0.060302699999999994,2021-05-03 11:36:56,
333,1620022016,-5.4921875,-2.1816406,5.1660156,2.2583007,14.892578099999998,-14.099120999999998,-0.1751953,0.0063476999999999995,0.060302699999999994,2021-05-03 11:36:56,
334,1620022016,-5.5214844,-2.2382812000000003,5.2285156,-4.150390600000001,15.5639648,-13.0004882,-0.1751953,0.0063476999999999995,0.060302699999999994,2021-05-03 11:36:56,
335,1620022016,-5.5664062,-2.265625,5.1933593,-23.6206054,18.0664062,-7.934570299999999,-0.1751953,0.0063476999999999995,0.060302699999999994,2021-05-03 11:36:56,
336,1620022016,-5.4726562,-2.2539062000000003,5.2558593,-38.39111320000001,15.9301758,-5.7373047,-0.1751953,0.0063476999999999995,0.060302699999999994,2021-05-03 11:36:56,
337,1620022016,-5.5390625,-2.2597656,5.2734375,-26.5502929,24.6582031,-10.4980469,-0.1751953,0.0063476999999999995,0.060302699999999994,2021-05-03 11:36:56,
338,1620022016,-5.5429687,-2.2167967999999996,5.3378906,-30.090332,29.296875,-2.1362304,-0.1751953,0.0063476999999999995,0.060302699999999994,2021-05-03 11:36:56,
339,1620022016,-5.4980469,-2.2148437000000003,5.2460937,-29.296875,40.4663086,5.1879882,-0.1751953,0.0063476999999999995,0.060302699999999994,2021-05-03 11:36:56,
340,1620022016,-5.5585937,-2.2304687000000003,5.3964843,-37.4755859,21.5454101,9.4604492,-0.1751953,0.0063476999999999995,0.060302699999999994,2021-05-03 11:36:56,
341,1620022016,-5.5839844,-2.2871092999999996,5.3496093,-36.8652344,11.0473632,14.5874023,-0.1751953,0.0063476999999999995,0.060302699999999994,2021-05-03 11:36:56,
342,1620022016,-5.5390625,-2.2480467999999996,5.3730468,-30.3344726,12.6342773,21.6064453,-0.1751953,0.0063476999999999995,0.060302699999999994,2021-05-03 11:36:56,
343,1620022016,-5.5117187,-2.2929687000000003,5.3125,-27.0996093,22.9492188,17.6391601,-0.1751953,0.0063476999999999995,0.060302699999999994,2021-05-03 11:36:56,
344,1620022016,-5.5644531,-2.2578125,5.3183593,-15.197753899999999,28.9306641,15.3198242,-0.1751953,0.0063476999999999995,0.060302699999999994,2021-05-03 11:36:56,
345,1620022016,-5.4980469,-2.2558592999999996,5.3476562,-25.390625,12.0849609,12.878418,-0.1751953,0.0063476999999999995,0.060302699999999994,2021-05-03 11:36:56,
346,1620022016,-5.4589844,-2.2597656,5.3046875,-15.6860351,8.605957,10.3149414,-0.1751953,0.0063476999999999995,0.060302699999999994,2021-05-03 11:36:56,
347,1620022016,-5.5019531,-2.2441406,5.3496093,-2.5024414,9.1552734,8.1787109,-0.1751953,0.0063476999999999995,0.060302699999999994,2021-05-03 11:36:56,
348,1620022016,-5.5292969,-2.2226562000000003,5.2734375,-1.4648437,15.4418945,10.0097656,-0.1751953,0.0063476999999999995,0.060302699999999994,2021-05-03 11:36:56,
349,1620022016,-5.5117187,-2.2109375,5.2421875,4.7607422,33.1420898,11.2915039,-0.1751953,0.0063476999999999995,0.060302699999999994,2021-05-03 11:36:56,
350,1620022016,-5.5117187,-2.1777342999999996,5.328125,11.6577148,25.6958008,-16.6015625,-0.1751953,0.0063476999999999995,0.060302699999999994,2021-05-03 11:36:56,
351,1620022016,-5.5078125,-2.2304687000000003,5.2871093,-0.0610352,9.1552734,-12.6342773,-0.1751953,0.0063476999999999995,0.060302699999999994,2021-05-03 11:36:56,
352,1620022016,-5.5507812,-2.1992187000000003,5.3007812,2.8076172,1.2817382,-17.3339843,-0.1751953,0.0063476999999999995,0.060302699999999994,2021-05-03 11:36:56,
353,1620022017,-5.5507812,-2.234375,5.1972656,3.540039,12.6953125,-10.1318359,-0.1751953,0.0063476999999999995,0.060302699999999994,2021-05-03 11:36:57,
354,1620022017,-5.5507812,-2.203125,5.234375,-5.7983398,9.7045898,-5.5541992,-0.1751953,0.0063476999999999995,0.060302699999999994,2021-05-03 11:36:57,
355,1620022017,-5.5214844,-2.28125,5.1992187,-2.6245117000000002,22.4609375,-6.5307617,-0.1751953,0.0063476999999999995,0.060302699999999994,2021-05-03 11:36:57,
356,1620022016,-5.5078125,-2.2910156,5.2460937,-19.7143554,4.8828125,-5.859375,-0.1751953,0.0063476999999999995,0.060302699999999994,2021-05-03 11:36:56,
357,1620022016,-5.4492187,-2.2753906,5.21875,-3.8452148,19.8364258,-11.2915039,-0.1751953,0.0063476999999999995,0.060302699999999994,2021-05-03 11:36:56,
358,1620022016,-5.53125,-2.3222656,5.2265625,-26.4282226,12.9394531,-8.7890625,-0.1751953,0.0063476999999999995,0.060302699999999994,2021-05-03 11:36:56,
359,1620022016,-5.5761719,-2.2070312000000003,5.3300781,-10.3149414,28.8696289,-13.4887695,-0.1751953,0.0063476999999999995,0.060302699999999994,2021-05-03 11:36:56,
360,1620022016,-5.515625,-2.2089842999999996,5.265625,-22.3999023,20.9350586,-4.5166015,-0.1751953,0.0063476999999999995,0.060302699999999994,2021-05-03 11:36:56,
361,1620022016,-5.5292969,-2.1679687000000003,5.3183593,-15.3198242,17.7001953,-0.8544921999999998,-0.1751953,0.0063476999999999995,0.060302699999999994,2021-05-03 11:36:56,
362,1620022016,-5.5097656,-2.2148437000000003,5.3007812,-20.1416015,6.7749023,3.6621094,-0.1751953,0.0063476999999999995,0.060302699999999994,2021-05-03 11:36:56,
363,1620022016,-5.4902344,-2.2265625,5.3066406,-11.2915039,15.0146484,4.5166015,-0.1751953,0.0063476999999999995,0.060302699999999994,2021-05-03 11:36:56,
364,1620022016,-5.4648437,-2.2636717999999996,5.3300781,-13.305664000000002,12.9394531,2.5634765,-0.1751953,0.0063476999999999995,0.060302699999999994,2021-05-03 11:36:56,
365,1620022016,-5.4882812,-2.2929687000000003,5.2832031,-6.2255859000000004,11.0473632,-3.6010742,-0.1751953,0.0063476999999999995,0.060302699999999994,2021-05-03 11:36:56,
366,1620022016,-5.53125,-2.3261717999999996,5.2851562,-4.4555664,12.0239257,-11.71875,-0.1751953,0.0063476999999999995,0.060302699999999994,2021-05-03 11:36:56,
367,1620022016,-5.5195312,-2.2597656,5.2226562,-2.1362304,18.9208984,-17.5170898,-0.1751953,0.0063476999999999995,0.060302699999999994,2021-05-03 11:36:56,
368,1620022016,-5.5800781,-2.2636717999999996,5.3242187,2.0751953000000003,14.5874023,-17.7001953,-0.1751953,0.0063476999999999995,0.060302699999999994,2021-05-03 11:36:56,
369,1620022016,-5.5585937,-2.2226562000000003,5.3222656,4.150390600000001,8.0566406,-10.0097656,-0.1751953,0.0063476999999999995,0.060302699999999994,2021-05-03 11:36:56,
370,1620022016,-5.5371094,-2.1972656,5.2558593,6.591796899999999,4.9438477,-3.7231445,-0.1751953,0.0063476999999999995,0.060302699999999994,2021-05-03 11:36:56,
371,1620022016,-5.59375,-2.1953125,5.2753906,6.713867200000001,6.1035156,3.4179687000000007,-0.1751953,0.0063476999999999995,0.060302699999999994,2021-05-03 11:36:56,
372,1620022016,-5.5664062,-2.234375,5.2089843,2.9907227,10.8032226,7.3242187,-0.1751953,0.0063476999999999995,0.060302699999999994,2021-05-03 11:36:56,
373,1620022016,-5.5507812,-2.2714842999999996,5.1914062,-4.7607422,9.8876953,2.1362304,-0.1751953,0.0063476999999999995,0.060302699999999994,2021-05-03 11:36:56,
374,1620022016,-5.5214844,-2.296875,5.2109375,-9.765625,8.9111328,-6.2255859000000004,-0.1751953,0.0063476999999999995,0.060302699999999994,2021-05-03 11:36:56,
375,1620022016,-5.4707031,-2.2578125,5.2109375,-12.2680664,16.7236328,-6.1645507,-0.1751953,0.0063476999999999995,0.060302699999999994,2021-05-03 11:36:56,
376,1620022016,-5.5527344,-2.25,5.2363281,-18.7988281,18.4326172,-1.953125,-0.1751953,0.0063476999999999995,0.060302699999999994,2021-05-03 11:36:56,
377,1620022016,-5.4707031,-2.2382812000000003,5.3203125,-13.9770508,20.9350586,5.493164,-0.1751953,0.0063476999999999995,0.060302699999999994,2021-05-03 11:36:56,
378,1620022016,-5.5078125,-2.2382812000000003,5.3203125,-18.3105468,16.3574218,13.671875,-0.1751953,0.0063476999999999995,0.060302699999999994,2021-05-03 11:36:56,
379,1620022016,-5.4433594,-2.2792967999999996,5.2832031,-21.3623047,18.0664062,16.1743164,-0.1751953,0.0063476999999999995,0.060302699999999994,2021-05-03 11:36:56,
380,1620022016,-5.5507812,-2.2753906,5.2050781,-24.8413086,11.71875,10.6811523,-0.1751953,0.0063476999999999995,0.060302699999999994,2021-05-03 11:36:56,
381,1620022017,-5.453125,-2.2382812000000003,5.3066406,-25.1464843,20.7519531,6.4697265,-0.1751953,0.0063476999999999995,0.060302699999999994,2021-05-03 11:36:57,
382,1620022017,-5.4375,-2.2167967999999996,5.3144531,-21.9116211,22.1557617,1.7700195,-0.1751953,0.0063476999999999995,0.060302699999999994,2021-05-03 11:36:57,
383,1620022017,-5.5839844,-2.2480467999999996,5.3027343,-21.8505859,21.2402343,2.1972656,-0.1751953,0.0063476999999999995,0.060302699999999994,2021-05-03 11:36:57,
384,1620022017,-5.4980469,-2.2265625,5.3222656,-15.075683499999998,21.484375,-2.3193359,-0.1751953,0.0063476999999999995,0.060302699999999994,2021-05-03 11:36:57,
385,1620022017,-5.4726562,-2.2714842999999996,5.3027343,-12.0849609,13.8549805,-6.3476562,-0.1751953,0.0063476999999999995,0.060302699999999994,2021-05-03 11:36:57,
386,1620022017,-5.4882812,-2.2519531,5.2910156,-11.1694336,14.892578099999998,-8.4838867,-0.1751953,0.0063476999999999995,0.060302699999999994,2021-05-03 11:36:57,
387,1620022017,-5.4980469,-2.265625,5.2402343,-4.0893554,15.0146484,-2.5024414,-0.1751953,0.0063476999999999995,0.060302699999999994,2021-05-03 11:36:57,
388,1620022017,-5.5292969,-2.2636717999999996,5.3027343,-1.953125,17.4560547,-5.1879882,-0.1751953,0.0063476999999999995,0.060302699999999994,2021-05-03 11:36:57,
389,1620022017,-5.5117187,-2.2636717999999996,5.2734375,-8.7890625,9.3383789,-1.7089843999999996,-0.1751953,0.0063476999999999995,0.060302699999999994,2021-05-03 11:36:57,
390,1620022017,-5.5566406,-2.265625,5.3417968,-0.12207029999999999,10.6811523,-4.2724609000000004,-0.1751953,0.0063476999999999995,0.060302699999999994,2021-05-03 11:36:57,
391,1620022017,-5.515625,-2.2773437000000003,5.2539062,-2.9296875,5.1269531,-6.1645507,-0.1751953,0.0063476999999999995,0.060302699999999994,2021-05-03 11:36:57,
392,1620022017,-5.5605469,-2.2695312000000003,5.265625,2.1972656,7.5073242,-2.0751953000000003,-0.1751953,0.0063476999999999995,0.060302699999999994,2021-05-03 11:36:57,
393,1620022017,-5.4882812,-2.2304687000000003,5.2929687,3.9672852,12.512207,-0.0610352,-0.1751953,0.0063476999999999995,0.060302699999999994,2021-05-03 11:36:57,
394,1620022017,-5.5097656,-2.2773437000000003,5.3027343,0.366211,9.765625,2.8076172,-0.1751953,0.0063476999999999995,0.060302699999999994,2021-05-03 11:36:57,
395,1620022017,-5.5253906,-2.2890625,5.203125,0.0610352,8.9111328,-3.4790038999999995,-0.1751953,0.0063476999999999995,0.060302699999999994,2021-05-03 11:36:57,
396,1620022017,-5.4980469,-2.328125,5.2226562,-3.540039,11.9018555,-2.2583007,-0.1751953,0.0063476999999999995,0.060302699999999994,2021-05-03 11:36:57,
397,1620022017,-5.5351562,-2.25,5.3085937,-3.1127929,11.4135742,-1.8920898000000002,-0.1751953,0.0063476999999999995,0.060302699999999994,2021-05-03 11:36:57,
398,1620022017,-5.5019531,-2.2304687000000003,5.2949218,-2.0141601000000002,10.4370117,-5.6762695,-0.1751953,0.0063476999999999995,0.060302699999999994,2021-05-03 11:36:57,
399,1620022017,-5.4609375,-2.25,5.2910156,-3.6010742,10.559082,-5.7373047,-0.1751953,0.0063476999999999995,0.060302699999999994,2021-05-03 11:36:57,
400,1620022017,-5.53125,-2.2207031,5.2929687,-1.7089843999999996,13.4887695,-0.6103516,-0.1751953,0.0063476999999999995,0.060302699999999994,2021-05-03 11:36:57,
401,1620022017,-5.5058594,-2.2539062000000003,5.2988281,-1.953125,13.916015599999998,4.4555664,-0.1751953,0.0063476999999999995,0.060302699999999994,2021-05-03 11:36:57,
402,1620022017,-5.546875,-2.2285156,5.21875,-8.7890625,5.859375,2.3193359,-0.1751953,0.0063476999999999995,0.060302699999999994,2021-05-03 11:36:57,
403,1620022017,-5.5351562,-2.2480467999999996,5.2207031,-5.1269531,8.1787109,2.6855469,-0.1751953,0.0063476999999999995,0.060302699999999994,2021-05-03 11:36:57,
404,1620022017,-5.5625,-2.2695312000000003,5.2324218,-9.2163086,20.2636718,3.6010742,-0.1751953,0.0063476999999999995,0.060302699999999994,2021-05-03 11:36:57,
405,1620022017,-5.5136719,-2.2519531,5.2714843,-9.7045898,22.5219726,4.2114257,-0.1751953,0.0063476999999999995,0.060302699999999994,2021-05-03 11:36:57,
406,1620022017,-5.5078125,-2.296875,5.3007812,-13.0004882,17.4560547,2.2583007,-0.1751953,0.0063476999999999995,0.060302699999999994,2021-05-03 11:36:57,
407,1620022017,-5.5292969,-2.2285156,5.2089843,-23.071289,9.6435547,2.5634765,-0.1751953,0.0063476999999999995,0.060302699999999994,2021-05-03 11:36:57,
408,1620022017,-5.5917969,-2.3261717999999996,5.1992187,-19.2260742,19.1040039,0.48828130000000003,-0.1751953,0.0063476999999999995,0.060302699999999994,2021-05-03 11:36:57,
409,1620022017,-5.4628906,-2.2480467999999996,5.234375,-21.9726562,22.3388672,-3.2958983999999996,-0.1751953,0.0063476999999999995,0.060302699999999994,2021-05-03 11:36:57,
410,1620022017,-5.4726562,-2.2382812000000003,5.2246093,-20.5688476,24.2919922,-5.493164,-0.1751953,0.0063476999999999995,0.060302699999999994,2021-05-03 11:36:57,
411,1620022017,-5.4765625,-2.2695312000000003,5.2636718,-22.5830078,20.9960938,-4.699707,-0.1751953,0.0063476999999999995,0.060302699999999994,2021-05-03 11:36:57,
412,1620022017,-5.5097656,-2.2363281,5.2304687,-21.4233398,15.5639648,-6.4697265,-0.1751953,0.0063476999999999995,0.060302699999999994,2021-05-03 11:36:57,
413,1620022017,-5.5625,-2.2832031,5.2324218,-22.0947265,18.2495117,-1.7089843999999996,-0.1751953,0.0063476999999999995,0.060302699999999994,2021-05-03 11:36:57,
414,1620022018,-5.5234375,-2.3164062000000003,5.2597656,-13.5498047,25.0854492,0.3051758,-0.1751953,0.0063476999999999995,0.060302699999999994,2021-05-03 11:36:58,
415,1620022018,-5.5625,-2.3164062000000003,5.265625,-18.6767578,10.1928711,-1.8310547,-0.1751953,0.0063476999999999995,0.060302699999999994,2021-05-03 11:36:58,
416,1620022017,-5.5390625,-2.3183592999999996,5.2265625,-9.6435547,9.399414,-0.24414059999999999,-0.1751953,0.0063476999999999995,0.060302699999999994,2021-05-03 11:36:57,
417,1620022017,-5.5605469,-2.2832031,5.3261718,-10.8642578,14.282226500000002,2.1362304,-0.1751953,0.0063476999999999995,0.060302699999999994,2021-05-03 11:36:57,
418,1620022017,-5.5683594,-2.2578125,5.3105468,-2.9907227,22.3388672,2.5024414,-0.1751953,0.0063476999999999995,0.060302699999999994,2021-05-03 11:36:57,
419,1620022017,-5.5253906,-2.2714842999999996,5.3261718,-7.3852539,12.0849609,3.90625,-0.1751953,0.0063476999999999995,0.060302699999999994,2021-05-03 11:36:57,
420,1620022017,-5.4628906,-2.2714842999999996,5.2324218,-0.12207029999999999,3.7841796999999997,4.699707,-0.1751953,0.0063476999999999995,0.060302699999999994,2021-05-03 11:36:57,
421,1620022017,-5.4863281,-2.2480467999999996,5.3261718,-1.5258789,7.7514648,-5.7983398,-0.1751953,0.0063476999999999995,0.060302699999999994,2021-05-03 11:36:57,
422,1620022017,-5.5078125,-2.2480467999999996,5.2734375,0.12207029999999999,9.399414,-9.4604492,-0.1751953,0.0063476999999999995,0.060302699999999994,2021-05-03 11:36:57,
423,1620022017,-5.4921875,-2.2695312000000003,5.21875,6.5307617,15.9301758,-17.5170898,-0.1751953,0.0063476999999999995,0.060302699999999994,2021-05-03 11:36:57,
424,1620022017,-5.5195312,-2.2441406,5.2871093,2.2583007,15.136718700000001,-17.8833008,-0.1751953,0.0063476999999999995,0.060302699999999994,2021-05-03 11:36:57,
425,1620022017,-5.5410156,-2.1894531,5.2851562,3.6621094,12.8173828,-13.4887695,-0.1751953,0.0063476999999999995,0.060302699999999994,2021-05-03 11:36:57,
426,1620022017,-5.4667969,-2.1953125,5.3574218,-0.12207029999999999,6.1645507,-7.934570299999999,-0.1751953,0.0063476999999999995,0.060302699999999994,2021-05-03 11:36:57,
427,1620022017,-5.5234375,-2.2695312000000003,5.2128906,-3.90625,7.5073242,-2.9296875,-0.1751953,0.0063476999999999995,0.060302699999999994,2021-05-03 11:36:57,
428,1620022017,-5.5390625,-2.2851562000000003,5.2695312,0.6103516,10.8032226,0.4272460999999999,-0.1751953,0.0063476999999999995,0.060302699999999994,2021-05-03 11:36:57,
429,1620022017,-5.5136719,-2.2519531,5.2792968,-3.7231445,7.995605499999999,0.9765626000000001,-0.1751953,0.0063476999999999995,0.060302699999999994,2021-05-03 11:36:57,
430,1620022017,-5.4785156,-2.265625,5.2011718,-2.8686523,11.2304687,-5.4321289,-0.1751953,0.0063476999999999995,0.060302699999999994,2021-05-03 11:36:57,
431,1620022017,-5.4765625,-2.2636717999999996,5.2324218,-8.0566406,12.2070312,-1.0375976,-0.1751953,0.0063476999999999995,0.060302699999999994,2021-05-03 11:36:57,
432,1620022017,-5.5136719,-2.2832031,5.2207031,-4.7607422,17.0288085,-4.3334961,-0.1751953,0.0063476999999999995,0.060302699999999994,2021-05-03 11:36:57,
433,1620022017,-5.5097656,-2.2636717999999996,5.2441406,-8.1176757,18.2495117,-8.1787109,-0.1751953,0.0063476999999999995,0.060302699999999994,2021-05-03 11:36:57,
434,1620022017,-5.5585937,-2.265625,5.2402343,-11.9018555,17.3339843,-9.2773437,-0.1751953,0.0063476999999999995,0.060302699999999994,2021-05-03 11:36:57,
435,1620022017,-5.4921875,-2.2480467999999996,5.2988281,-14.8315429,16.2963867,-4.3945312,-0.1751953,0.0063476999999999995,0.060302699999999994,2021-05-03 11:36:57,
436,1620022017,-5.5136719,-2.2382812000000003,5.2050781,-14.221191399999999,14.465332,-2.9907227,-0.1751953,0.0063476999999999995,0.060302699999999994,2021-05-03 11:36:57,
437,1620022017,-5.5195312,-2.2460937000000003,5.2734375,-13.9770508,13.3666992,-0.9765626000000001,-0.1751953,0.0063476999999999995,0.060302699999999994,2021-05-03 11:36:57,
438,1620022017,-5.5078125,-2.2695312000000003,5.2949218,-10.559082,15.9912109,-2.0141601000000002,-0.1751953,0.0063476999999999995,0.060302699999999994,2021-05-03 11:36:57,
439,1620022018,-5.5273437,-2.2480467999999996,5.2539062,-10.7421875,17.211914,-3.6010742,-0.1751953,0.0063476999999999995,0.060302699999999994,2021-05-03 11:36:58,
440,1620022018,-5.4785156,-2.2675781,5.2773437,-9.2773437,16.7846679,-8.9111328,-0.1751953,0.0063476999999999995,0.060302699999999994,2021-05-03 11:36:58,
441,1620022018,-5.4960937,-2.2636717999999996,5.2109375,-9.8266601,13.4887695,-8.605957,-0.1751953,0.0063476999999999995,0.060302699999999994,2021-05-03 11:36:58,
442,1620022018,-5.5058594,-2.2539062000000003,5.2402343,-7.629394500000001,15.4418945,-8.3618164,-0.1751953,0.0063476999999999995,0.060302699999999994,2021-05-03 11:36:58,
443,1620022018,-5.5390625,-2.2851562000000003,5.3183593,-7.995605499999999,14.4042968,-1.586914,-0.1751953,0.0063476999999999995,0.060302699999999994,2021-05-03 11:36:58,
444,1620022018,-5.484375,-2.265625,5.3203125,-0.9765626000000001,11.6577148,2.9296875,-0.1751953,0.0063476999999999995,0.060302699999999994,2021-05-03 11:36:58,
445,1620022018,-5.5214844,-2.2851562000000003,5.2792968,-1.4038086,5.493164,3.8452148,-0.1751953,0.0063476999999999995,0.060302699999999994,2021-05-03 11:36:58,
446,1620022018,-5.5078125,-2.3066406,5.2324218,2.6855469,3.7231445,6.1035156,-0.1751953,0.0063476999999999995,0.060302699999999994,2021-05-03 11:36:58,
447,1620022018,-5.5253906,-2.2792967999999996,5.2792968,4.5166015,8.5449219,4.9438477,-0.1751953,0.0063476999999999995,0.060302699999999994,2021-05-03 11:36:58,
448,1620022018,-5.5566406,-2.2363281,5.2246093,0.9155274,11.0473632,2.9907227,-0.1751953,0.0063476999999999995,0.060302699999999994,2021-05-03 11:36:58,
449,1620022018,-5.5371094,-2.2441406,5.2441406,-1.5258789,10.8032226,-1.1596678999999999,-0.1751953,0.0063476999999999995,0.060302699999999994,2021-05-03 11:36:58,
450,1620022018,-5.484375,-2.21875,5.2226562,-3.9672852,11.352539,2.746582,-0.1751953,0.0063476999999999995,0.060302699999999994,2021-05-03 11:36:58,
451,1620022018,-5.5273437,-2.25,5.2910156,-6.4697265,13.4887695,5.7373047,-0.1751953,0.0063476999999999995,0.060302699999999994,2021-05-03 11:36:58,
452,1620022018,-5.515625,-2.1992187000000003,5.3378906,-8.6669922,13.671875,5.0048828,-0.1751953,0.0063476999999999995,0.060302699999999994,2021-05-03 11:36:58,
453,1620022018,-5.4511719,-2.2832031,5.3359375,-11.4746094,12.3901367,3.4179687000000007,-0.1751953,0.0063476999999999995,0.060302699999999994,2021-05-03 11:36:58,
454,1620022018,-5.4882812,-2.2441406,5.3046875,-11.2915039,12.512207,1.6479491999999998,-0.1751953,0.0063476999999999995,0.060302699999999994,2021-05-03 11:36:58,
455,1620022018,-5.5292969,-2.234375,5.3007812,-20.8129883,19.4091797,-13.0615234,-0.1751953,0.0063476999999999995,0.060302699999999994,2021-05-03 11:36:58,
456,1620022018,-5.5039062,-2.2558592999999996,5.34375,-14.7705078,19.0429687,-10.0097656,-0.1751953,0.0063476999999999995,0.060302699999999994,2021-05-03 11:36:58,
457,1620022018,-5.5097656,-2.203125,5.3613281,-12.5732422,16.4794922,-2.5024414,-0.1751953,0.0063476999999999995,0.060302699999999994,2021-05-03 11:36:58,
458,1620022018,-5.5234375,-2.2851562000000003,5.2070312,-9.9487305,14.282226500000002,0.48828130000000003,-0.1751953,0.0063476999999999995,0.060302699999999994,2021-05-03 11:36:58,
459,1620022018,-5.5175781,-2.2773437000000003,5.3222656,-7.5073242,10.0708007,0.6713868000000001,-0.1751953,0.0063476999999999995,0.060302699999999994,2021-05-03 11:36:58,
460,1620022018,-5.4707031,-2.2695312000000003,5.2578125,-5.3100586,11.7797851,1.7089843999999996,-0.1751953,0.0063476999999999995,0.060302699999999994,2021-05-03 11:36:58,
461,1620022018,-5.46875,-2.3066406,5.3398437,-2.1972656,11.8408203,0.6103516,-0.1751953,0.0063476999999999995,0.060302699999999994,2021-05-03 11:36:58,
462,1620022018,-5.4453125,-2.3203125,5.3457031,-1.3427733999999998,12.0849609,0.0610352,-0.1751953,0.0063476999999999995,0.060302699999999994,2021-05-03 11:36:58,
463,1620022018,-5.5195312,-2.2695312000000003,5.296875,0.12207029999999999,10.2539062,-1.7700195,-0.1751953,0.0063476999999999995,0.060302699999999994,2021-05-03 11:36:58,
464,1620022018,-5.5058594,-2.2597656,5.3144531,1.8920898000000002,10.1318359,-1.2207031000000002,-0.1751953,0.0063476999999999995,0.060302699999999994,2021-05-03 11:36:58,
465,1620022018,-5.5097656,-2.2597656,5.3125,0.9155274,8.1176757,-0.24414059999999999,-0.1751953,0.0063476999999999995,0.060302699999999994,2021-05-03 11:36:58,
466,1620022018,-5.5,-2.2460937000000003,5.2246093,-1.4038086,6.8969727,2.1362304,-0.1751953,0.0063476999999999995,0.060302699999999994,2021-05-03 11:36:58,
467,1620022018,-5.5371094,-2.2285156,5.296875,0.24414059999999999,7.446289,3.6010742,-0.1751953,0.0063476999999999995,0.060302699999999994,2021-05-03 11:36:58,
468,1620022018,-5.515625,-2.28125,5.2089843,-4.2724609000000004,9.2163086,3.4179687000000007,-0.1751953,0.0063476999999999995,0.060302699999999994,2021-05-03 11:36:58,
469,1620022018,-5.5292969,-2.2910156,5.28125,-5.3100586,11.71875,1.4038086,-0.1751953,0.0063476999999999995,0.060302699999999994,2021-05-03 11:36:58,
470,1620022018,-5.515625,-2.2558592999999996,5.2558593,-6.2255859000000004,11.4746094,-4.4555664,-0.1751953,0.0063476999999999995,0.060302699999999994,2021-05-03 11:36:58,
471,1620022019,-5.5058594,-2.2304687000000003,5.203125,-8.8500977,13.4887695,-6.8359375,-0.1751953,0.0063476999999999995,0.060302699999999994,2021-05-03 11:36:59,
472,1620022019,-5.4472656,-2.2363281,5.2578125,-8.3618164,15.4418945,-6.4086914,-0.1751953,0.0063476999999999995,0.060302699999999994,2021-05-03 11:36:59,
473,1620022019,-5.5058594,-2.2148437000000003,5.3164062,-9.1552734,15.8081054,-4.9438477,-0.1751953,0.0063476999999999995,0.060302699999999994,2021-05-03 11:36:59,
474,1620022018,-5.5507812,-2.2773437000000003,5.2207031,-10.0097656,15.0146484,-2.4414062000000003,-0.1751953,0.0063476999999999995,0.060302699999999994,2021-05-03 11:36:58,
475,1620022018,-5.4492187,-2.2597656,5.1933593,-11.4746094,15.136718700000001,-0.48828130000000003,-0.1751953,0.0063476999999999995,0.060302699999999994,2021-05-03 11:36:58,
476,1620022018,-5.4628906,-2.2597656,5.2519531,-12.9394531,12.7563476,0.4272460999999999,-0.1751953,0.0063476999999999995,0.060302699999999994,2021-05-03 11:36:58,
477,1620022018,-5.515625,-2.2480467999999996,5.2441406,-14.5263672,17.0898437,-0.48828130000000003,-0.1751953,0.0063476999999999995,0.060302699999999994,2021-05-03 11:36:58,
478,1620022018,-5.5195312,-2.296875,5.2734375,-13.9770508,18.9819336,1.4038086,-0.1751953,0.0063476999999999995,0.060302699999999994,2021-05-03 11:36:58,
479,1620022018,-5.4667969,-2.2246092999999996,5.3203125,-12.1459961,19.0429687,2.0141601000000002,-0.1751953,0.0063476999999999995,0.060302699999999994,2021-05-03 11:36:58,
480,1620022018,-5.4941406,-2.2460937000000003,5.3125,-11.1694336,13.244628899999999,0.3051758,-0.1751953,0.0063476999999999995,0.060302699999999994,2021-05-03 11:36:58,
481,1620022018,-5.5195312,-2.296875,5.2988281,-11.5356445,12.512207,1.8920898000000002,-0.1751953,0.0063476999999999995,0.060302699999999994,2021-05-03 11:36:58,
482,1620022018,-5.5214844,-2.2285156,5.3007812,-8.605957,15.197753899999999,6.713867200000001,-0.1751953,0.0063476999999999995,0.060302699999999994,2021-05-03 11:36:58,
483,1620022018,-5.5136719,-2.2734375,5.2265625,-8.5449219,15.136718700000001,4.8217773,-0.1751953,0.0063476999999999995,0.060302699999999994,2021-05-03 11:36:58,
484,1620022018,-5.5195312,-2.2402342999999996,5.296875,-9.399414,12.1459961,5.2490234000000004,-0.1751953,0.0063476999999999995,0.060302699999999994,2021-05-03 11:36:58,
485,1620022018,-5.5214844,-2.2949217999999996,5.3242187,-11.1083984,10.8032226,3.2348632,-0.1751953,0.0063476999999999995,0.060302699999999994,2021-05-03 11:36:58,
486,1620022018,-5.5117187,-2.2402342999999996,5.2480468,-11.1694336,15.5029297,3.0517578,-0.1751953,0.0063476999999999995,0.060302699999999994,2021-05-03 11:36:58,
487,1620022018,-5.484375,-2.3046875,5.2460937,-11.4746094,18.4326172,1.0375976,-0.1751953,0.0063476999999999995,0.060302699999999994,2021-05-03 11:36:58,
488,1620022018,-5.4726562,-2.28125,5.2519531,-15.3198242,11.71875,0.0,-0.1751953,0.0063476999999999995,0.060302699999999994,2021-05-03 11:36:58,
489,1620022018,-5.5117187,-2.2988281,5.3027343,-12.0849609,16.418457,-2.6855469,-0.1751953,0.0063476999999999995,0.060302699999999994,2021-05-03 11:36:58,
490,1620022018,-5.5429687,-2.2636717999999996,5.2304687,-10.2539062,16.9677734,4.6386719,-0.1751953,0.0063476999999999995,0.060302699999999994,2021-05-03 11:36:58,
491,1620022018,-5.5214844,-2.2226562000000003,5.2792968,-10.6201172,16.7236328,6.4697265,-0.1751953,0.0063476999999999995,0.060302699999999994,2021-05-03 11:36:58,
492,1620022018,-5.4746094,-2.28125,5.3046875,-18.9819336,7.934570299999999,2.8686523,-0.1751953,0.0063476999999999995,0.060302699999999994,2021-05-03 11:36:58,
493,1620022018,-5.4824219,-2.3105467999999996,5.28125,-13.4887695,15.6860351,1.2207031000000002,-0.1751953,0.0063476999999999995,0.060302699999999994,2021-05-03 11:36:58,
494,1620022018,-5.5429687,-2.2441406,5.2480468,-13.916015599999998,19.4091797,-1.2817382,-0.1751953,0.0063476999999999995,0.060302699999999994,2021-05-03 11:36:58,
495,1620022018,-5.4316406,-2.2597656,5.2753906,-17.2729492,20.6909179,-5.7373047,-0.1751953,0.0063476999999999995,0.060302699999999994,2021-05-03 11:36:58,
496,1620022019,-5.546875,-2.2460937000000003,5.2695312,-21.6674804,13.916015599999998,-1.586914,-0.1751953,0.0063476999999999995,0.060302699999999994,2021-05-03 11:36:59,
497,1620022019,-5.5488281,-2.2539062000000003,5.1835937,-8.8500977,16.7236328,2.0141601000000002,-0.1751953,0.0063476999999999995,0.060302699999999994,2021-05-03 11:36:59,
498,1620022019,-5.5195312,-2.2636717999999996,5.28125,-11.5356445,14.892578099999998,3.90625,-0.1751953,0.0063476999999999995,0.060302699999999994,2021-05-03 11:36:59,
499,1620022019,-5.5019531,-2.2929687000000003,5.3007812,-13.7329101,20.6909179,8.7280273,-0.1751953,0.0063476999999999995,0.060302699999999994,2021-05-03 11:36:59,
500,1620022019,-5.4804687,-2.2910156,5.2578125,-15.9912109,16.6015625,5.3100586,-0.1751953,0.0063476999999999995,0.060302699999999994,2021-05-03 11:36:59,
501,1620022019,-5.4960937,-2.3300781,5.2402343,-17.6391601,5.7983398,-0.8544921999999998,-0.1751953,0.0063476999999999995,0.060302699999999994,2021-05-03 11:36:59,
502,1620022019,-5.4550781,-2.3066406,5.2988281,-14.160156200000001,12.512207,-2.5024414,-0.1751953,0.0063476999999999995,0.060302699999999994,2021-05-03 11:36:59,
503,1620022019,-5.46875,-2.2753906,5.3007812,-7.7514648,21.1791992,1.0986328,-0.1751953,0.0063476999999999995,0.060302699999999994,2021-05-03 11:36:59,
504,1620022019,-5.5214844,-2.2382812000000003,5.3378906,-6.8359375,15.075683499999998,1.4648437,-0.1751953,0.0063476999999999995,0.060302699999999994,2021-05-03 11:36:59,
505,1620022019,-5.4824219,-2.3046875,5.3183593,0.9155274,7.8735352,-4.8828125,-0.1751953,0.0063476999999999995,0.060302699999999994,2021-05-03 11:36:59,
506,1620022019,-5.4863281,-2.2832031,5.3300781,2.2583007,0.9155274,-8.7890625,-0.1751953,0.0063476999999999995,0.060302699999999994,2021-05-03 11:36:59,
507,1620022019,-5.453125,-2.3125,5.3164062,4.150390600000001,12.6342773,-8.6669922,-0.1751953,0.0063476999999999995,0.060302699999999994,2021-05-03 11:36:59,
508,1620022019,-5.4726562,-2.2539062000000003,5.296875,6.5307617,18.4326172,-8.4838867,-0.1751953,0.0063476999999999995,0.060302699999999994,2021-05-03 11:36:59,
509,1620022019,-5.4804687,-2.2285156,5.2363281,2.1972656,10.7421875,-5.0659179000000005,-0.1751953,0.0063476999999999995,0.060302699999999994,2021-05-03 11:36:59,
510,1620022019,-5.5253906,-2.2460937000000003,5.3222656,5.1269531,1.2207031000000002,-4.8217773,-0.1751953,0.0063476999999999995,0.060302699999999994,2021-05-03 11:36:59,
511,1620022019,-5.4511719,-2.2988281,5.2753906,-2.1972656,-3.1738281,-4.0283203,-0.1751953,0.0063476999999999995,0.060302699999999994,2021-05-03 11:36:59,
512,1620022019,-5.4863281,-2.3300781,5.2460937,7.446289,20.7519531,-12.3901367,-0.1751953,0.0063476999999999995,0.060302699999999994,2021-05-03 11:36:59,
513,1620022019,-5.5097656,-2.3183592999999996,5.3007812,-3.7231445,13.916015599999998,-13.8549805,-0.1751953,0.0063476999999999995,0.060302699999999994,2021-05-03 11:36:59,
514,1620022019,-5.4765625,-2.2382812000000003,5.2871093,6.1645507,10.3149414,-15.0146484,-0.1751953,0.0063476999999999995,0.060302699999999994,2021-05-03 11:36:59,
515,1620022019,-5.5625,-2.2441406,5.3398437,0.12207029999999999,9.4604492,-6.8969727,-0.1751953,0.0063476999999999995,0.060302699999999994,2021-05-03 11:36:59,
516,1620022019,-5.5058594,-2.2167967999999996,5.203125,-1.4648437,17.7612304,5.0048828,-0.1751953,0.0063476999999999995,0.060302699999999994,2021-05-03 11:36:59,
517,1620022019,-5.5,-2.2773437000000003,5.2226562,-10.8032226,11.5966797,12.7563476,-0.1751953,0.0063476999999999995,0.060302699999999994,2021-05-03 11:36:59,
518,1620022019,-5.4960937,-2.2929687000000003,5.2402343,-16.5405273,9.0942382,8.5449219,-0.1751953,0.0063476999999999995,0.060302699999999994,2021-05-03 11:36:59,
519,1620022019,-5.5292969,-2.265625,5.21875,-19.1040039,14.892578099999998,6.2255859000000004,-0.1751953,0.0063476999999999995,0.060302699999999994,2021-05-03 11:36:59,
520,1620022019,-5.4726562,-2.2734375,5.25,-24.4750976,25.1464843,9.0942382,-0.1751953,0.0063476999999999995,0.060302699999999994,2021-05-03 11:36:59,
521,1620022019,-5.5058594,-2.2519531,5.2285156,-20.9960938,26.9165039,9.8266601,-0.1751953,0.0063476999999999995,0.060302699999999994,2021-05-03 11:36:59,
522,1620022019,-5.5390625,-2.28125,5.2519531,-30.2734375,12.2680664,11.2304687,-0.1751953,0.0063476999999999995,0.060302699999999994,2021-05-03 11:36:59,
523,1620022019,-5.4570312,-2.2324217999999996,5.1953125,-29.6630859,19.1040039,6.2866211,-0.1751953,0.0063476999999999995,0.060302699999999994,2021-05-03 11:36:59,
524,1620022019,-5.4589844,-2.3007812000000003,5.2714843,-26.3671875,29.5410156,7.690429700000001,-0.1751953,0.0063476999999999995,0.060302699999999994,2021-05-03 11:36:59,
525,1620022019,-5.4804687,-2.2695312000000003,5.3398437,-10.6811523,15.0146484,2.8686523,-0.1751953,0.0063476999999999995,0.060302699999999994,2021-05-03 11:36:59,
526,1620022019,-5.4238281,-2.2382812000000003,5.3242187,-6.1035156,16.6015625,0.9765626000000001,-0.1751953,0.0063476999999999995,0.060302699999999994,2021-05-03 11:36:59,
527,1620022019,-5.4765625,-2.2851562000000003,5.2832031,-6.958007799999999,14.5263672,-0.6103516,-0.1751953,0.0063476999999999995,0.060302699999999994,2021-05-03 11:36:59,
528,1620022019,-5.5332031,-2.2714842999999996,5.2578125,-4.4555664,8.1787109,0.7324219,-0.1751953,0.0063476999999999995,0.060302699999999994,2021-05-03 11:36:59,
529,1620022020,-5.4648437,-2.265625,5.203125,1.5258789,10.8642578,-1.8310547,-0.1751953,0.0063476999999999995,0.060302699999999994,2021-05-03 11:37:00,
530,1620022020,-5.5019531,-2.3261717999999996,5.1972656,-0.24414059999999999,11.2304687,-8.8500977,-0.1751953,0.0063476999999999995,0.060302699999999994,2021-05-03 11:37:00,
531,1620022019,-5.4589844,-2.3046875,5.1914062,4.3334961,12.3291015,-19.53125,-0.1751953,0.0063476999999999995,0.060302699999999994,2021-05-03 11:36:59,
532,1620022019,-5.515625,-2.3046875,5.234375,9.2773437,7.8735352,-23.9257812,-0.1751953,0.0063476999999999995,0.060302699999999994,2021-05-03 11:36:59,
533,1620022019,-5.5078125,-2.2792967999999996,5.28125,10.4980469,5.0659179000000005,-23.0102539,-0.1751953,0.0063476999999999995,0.060302699999999994,2021-05-03 11:36:59,
534,1620022019,-5.5332031,-2.2363281,5.1914062,4.6386719,6.3476562,-7.446289,-0.1751953,0.0063476999999999995,0.060302699999999994,2021-05-03 11:36:59,
535,1620022019,-5.5234375,-2.3125,5.2167968,5.5541992,7.0190429000000005,5.9814453,-0.1751953,0.0063476999999999995,0.060302699999999994,2021-05-03 11:36:59,
536,1620022019,-5.4980469,-2.3203125,5.3183593,-3.7231445,4.5166015,8.0566406,-0.1751953,0.0063476999999999995,0.060302699999999994,2021-05-03 11:36:59,
537,1620022019,-5.4863281,-2.3222656,5.1855468,-5.7983398,11.1083984,4.6386719,-0.1751953,0.0063476999999999995,0.060302699999999994,2021-05-03 11:36:59,
538,1620022019,-5.4921875,-2.2753906,5.1933593,-8.7280273,16.1743164,-4.2114257,-0.1751953,0.0063476999999999995,0.060302699999999994,2021-05-03 11:36:59,
539,1620022019,-5.5273437,-2.2949217999999996,5.2265625,-5.859375,20.7519531,-11.8408203,-0.1751953,0.0063476999999999995,0.060302699999999994,2021-05-03 11:36:59,
540,1620022019,-5.5332031,-2.2578125,5.2792968,-13.3666992,18.7377929,-4.4555664,-0.1751953,0.0063476999999999995,0.060302699999999994,2021-05-03 11:36:59,
541,1620022019,-5.5292969,-2.2089842999999996,5.2617187,-17.8222656,17.578125,12.0849609,-0.1751953,0.0063476999999999995,0.060302699999999994,2021-05-03 11:36:59,
542,1620022019,-5.5546875,-2.2929687000000003,5.2265625,-18.2495117,16.5405273,23.6206054,-0.1751953,0.0063476999999999995,0.060302699999999994,2021-05-03 11:36:59,
543,1620022019,-5.5175781,-2.2558592999999996,5.3027343,-23.5595703,8.8500977,28.7475586,-0.1751953,0.0063476999999999995,0.060302699999999994,2021-05-03 11:36:59,
544,1620022019,-5.4882812,-2.3046875,5.25,-26.489257799999997,15.9301758,24.4140625,-0.1751953,0.0063476999999999995,0.060302699999999994,2021-05-03 11:36:59,
545,1620022019,-5.4472656,-2.2441406,5.2070312,-25.2685547,22.7661133,8.5449219,-0.1751953,0.0063476999999999995,0.060302699999999994,2021-05-03 11:36:59,
546,1620022019,-5.5175781,-2.2265625,5.1855468,-31.0668945,25.1464843,9.2163086,-0.1751953,0.0063476999999999995,0.060302699999999994,2021-05-03 11:36:59,
547,1620022019,-5.46875,-2.2636717999999996,5.2949218,-26.1230468,28.0761718,2.6855469,-0.1751953,0.0063476999999999995,0.060302699999999994,2021-05-03 11:36:59,
548,1620022019,-5.4511719,-2.1796875,5.2988281,-25.9399414,22.8881836,3.7231445,-0.1751953,0.0063476999999999995,0.060302699999999994,2021-05-03 11:36:59,
549,1620022019,-5.4960937,-2.2636717999999996,5.3242187,-16.8457031,16.4794922,11.7797851,-0.1751953,0.0063476999999999995,0.060302699999999994,2021-05-03 11:36:59,
550,1620022019,-5.5019531,-2.2011717999999996,5.328125,-20.5078125,5.5541992,12.8173828,-0.1751953,0.0063476999999999995,0.060302699999999994,2021-05-03 11:36:59,
551,1620022019,-5.4375,-2.3808592999999996,5.2148437,-12.512207,9.399414,-4.7607422,-0.1751953,0.0063476999999999995,0.060302699999999994,2021-05-03 11:36:59,
552,1620022019,-5.4667969,-2.4335937000000003,5.3066406,-16.2353515,18.0664062,-9.6435547,-0.1751953,0.0063476999999999995,0.060302699999999994,2021-05-03 11:36:59,
553,1620022019,-5.5058594,-2.3554687000000003,5.1679687,-2.0751953000000003,31.188964799999997,-24.6582031,-0.1751953,0.0063476999999999995,0.060302699999999994,2021-05-03 11:36:59,
554,1620022019,-5.4941406,-2.2753906,5.2714843,-3.540039,17.211914,-38.2690429,-0.1751953,0.0063476999999999995,0.060302699999999994,2021-05-03 11:36:59,
555,1620022019,-5.5449219,-2.2695312000000003,5.3222656,2.3803711,13.5498047,-34.0576171,-0.1751953,0.0063476999999999995,0.060302699999999994,2021-05-03 11:36:59,
556,1620022019,-5.5644531,-2.2265625,5.2617187,3.6621094,16.7236328,-14.160156200000001,-0.1751953,0.0063476999999999995,0.060302699999999994,2021-05-03 11:36:59,
557,1620022020,-5.5585937,-2.25,5.2539062,4.7607422,9.399414,-2.4414062000000003,-0.1751953,0.0063476999999999995,0.060302699999999994,2021-05-03 11:37:00,
558,1620022020,-5.5527344,-2.3066406,5.1992187,5.493164,-2.5634765,2.3803711,-0.1751953,0.0063476999999999995,0.060302699999999994,2021-05-03 11:37:00,
559,1620022020,-5.5625,-2.2988281,5.25,4.0893554,-7.7514648,8.3618164,-0.1751953,0.0063476999999999995,0.060302699999999994,2021-05-03 11:37:00,
560,1620022020,-5.53125,-2.3085937000000003,5.1816406,-0.4272460999999999,14.221191399999999,4.7607422,-0.1751953,0.0063476999999999995,0.060302699999999994,2021-05-03 11:37:00,
561,1620022020,-5.5136719,-2.2578125,5.2226562,-13.916015599999998,13.4887695,9.9487305,-0.1751953,0.0063476999999999995,0.060302699999999994,2021-05-03 11:37:00,
562,1620022020,-5.5839844,-2.2050781,5.0742187,-15.9301758,16.7846679,17.4560547,-0.1751953,0.0063476999999999995,0.060302699999999994,2021-05-03 11:37:00,
563,1620022020,-5.4433594,-2.2480467999999996,5.1914062,-26.5502929,18.4936523,27.8930664,-0.1751953,0.0063476999999999995,0.060302699999999994,2021-05-03 11:37:00,
564,1620022020,-5.4628906,-2.2402342999999996,5.2207031,-32.043457000000004,18.9819336,23.3764648,-0.1751953,0.0063476999999999995,0.060302699999999994,2021-05-03 11:37:00,
565,1620022020,-5.4550781,-2.3183592999999996,5.2324218,-37.3535156,18.1884765,11.9628906,-0.1751953,0.0063476999999999995,0.060302699999999994,2021-05-03 11:37:00,
566,1620022020,-5.4277344,-2.3085937000000003,5.3300781,-37.7807617,25.2685547,-3.1127929,-0.1751953,0.0063476999999999995,0.060302699999999994,2021-05-03 11:37:00,
567,1620022020,-5.453125,-2.2773437000000003,5.2382812,-35.949707000000004,29.296875,-6.591796899999999,-0.1751953,0.0063476999999999995,0.060302699999999994,2021-05-03 11:37:00,
568,1620022020,-5.4765625,-2.2832031,5.203125,-24.4750976,30.8837891,-13.9770508,-0.1751953,0.0063476999999999995,0.060302699999999994,2021-05-03 11:37:00,
569,1620022020,-5.4453125,-2.2929687000000003,5.2441406,-27.465820299999997,22.277832,-18.7988281,-0.1751953,0.0063476999999999995,0.060302699999999994,2021-05-03 11:37:00,
570,1620022020,-5.4882812,-2.2851562000000003,5.3671875,-16.9067383,18.3105468,-24.1088867,-0.1751953,0.0063476999999999995,0.060302699999999994,2021-05-03 11:37:00,
571,1620022020,-5.5058594,-2.2382812000000003,5.3417968,-5.1879882,14.099120999999998,-21.3012695,-0.1751953,0.0063476999999999995,0.060302699999999994,2021-05-03 11:37:00,
572,1620022020,-5.4902344,-2.3339842999999996,5.3203125,6.591796899999999,14.099120999999998,-19.6533203,-0.1751953,0.0063476999999999995,0.060302699999999994,2021-05-03 11:37:00,
573,1620022020,-5.5878906,-2.3203125,5.3769531,10.6811523,7.2631836,-18.2495117,-0.1751953,0.0063476999999999995,0.060302699999999994,2021-05-03 11:37:00,
574,1620022020,-5.5761719,-2.3027342999999996,5.3339843,24.4750976,3.6621094,-20.0195312,-0.1751953,0.0063476999999999995,0.060302699999999994,2021-05-03 11:37:00,
575,1620022020,-5.5390625,-2.3710937000000003,5.2832031,22.8881836,-4.8828125,-9.765625,-0.1751953,0.0063476999999999995,0.060302699999999994,2021-05-03 11:37:00,
576,1620022020,-5.5292969,-2.2695312000000003,5.2832031,30.7006836,-6.5307617,-3.9672852,-0.1751953,0.0063476999999999995,0.060302699999999994,2021-05-03 11:37:00,
577,1620022020,-5.5371094,-2.3007812000000003,5.2636718,30.212402299999997,-8.7890625,1.8920898000000002,-0.1751953,0.0063476999999999995,0.060302699999999994,2021-05-03 11:37:00,
578,1620022020,-5.5585937,-2.2675781,5.1992187,29.602050800000004,-4.3334961,3.4179687000000007,-0.1751953,0.0063476999999999995,0.060302699999999994,2021-05-03 11:37:00,
579,1620022020,-5.5390625,-2.3027342999999996,5.1738281,22.3388672,-5.6762695,9.5825195,-0.1751953,0.0063476999999999995,0.060302699999999994,2021-05-03 11:37:00,
580,1620022020,-5.5292969,-2.2773437000000003,5.2128906,20.5078125,0.0,9.3383789,-0.1751953,0.0063476999999999995,0.060302699999999994,2021-05-03 11:37:00,
581,1620022020,-5.5058594,-2.2636717999999996,5.1914062,10.1318359,-1.6479491999999998,10.9863281,-0.1751953,0.0063476999999999995,0.060302699999999994,2021-05-03 11:37:00,
582,1620022020,-5.4394531,-2.2324217999999996,5.2558593,9.765625,12.8173828,7.934570299999999,-0.1751953,0.0063476999999999995,0.060302699999999994,2021-05-03 11:37:00,
583,1620022020,-5.4726562,-2.2382812000000003,5.2226562,-10.559082,14.4042968,6.2255859000000004,-0.1751953,0.0063476999999999995,0.060302699999999994,2021-05-03 11:37:00,
584,1620022020,-5.4707031,-2.2148437000000003,5.1503906,-15.075683499999998,17.5170898,0.48828130000000003,-0.1751953,0.0063476999999999995,0.060302699999999994,2021-05-03 11:37:00,
585,1620022020,-5.4804687,-2.2265625,5.2246093,-26.5502929,19.8974609,-0.5493164,-0.1751953,0.0063476999999999995,0.060302699999999994,2021-05-03 11:37:00,
586,1620022020,-5.5039062,-2.2382812000000003,5.2890625,-36.4990234,24.1699218,2.0751953000000003,-0.1751953,0.0063476999999999995,0.060302699999999994,2021-05-03 11:37:00,
587,1620022020,-5.4726562,-2.25,5.203125,-38.5742187,28.8696289,2.3803711,-0.1751953,0.0063476999999999995,0.060302699999999994,2021-05-03 11:37:00,
588,1620022020,-5.5058594,-2.2285156,5.3574218,-47.7294922,27.5268554,7.1411131999999995,-0.1751953,0.0063476999999999995,0.060302699999999994,2021-05-03 11:37:00,
589,1620022020,-5.5351562,-2.2871092999999996,5.3300781,-44.738769500000004,28.5034179,4.9438477,-0.1751953,0.0063476999999999995,0.060302699999999994,2021-05-03 11:37:00,
590,1620022020,-5.4824219,-2.3007812000000003,5.296875,-46.875,28.3203125,1.5258789,-0.1751953,0.0063476999999999995,0.060302699999999994,2021-05-03 11:37:00,
591,1620022021,-5.5410156,-2.28125,5.2988281,-36.193847600000005,35.3393554,-7.1411131999999995,-0.1751953,0.0063476999999999995,0.060302699999999994,2021-05-03 11:37:01,
592,1620022021,-5.5390625,-2.3046875,5.359375,-40.8935547,28.991699199999996,-2.4414062000000003,-0.1751953,0.0063476999999999995,0.060302699999999994,2021-05-03 11:37:01,
593,1620022020,-5.5292969,-2.2773437000000003,5.390625,-26.0009765,29.602050800000004,-5.859375,-0.1751953,0.0063476999999999995,0.060302699999999994,2021-05-03 11:37:00,
594,1620022020,-5.515625,-2.2871092999999996,5.3300781,-26.0009765,14.5874023,0.1831055,-0.1751953,0.0063476999999999995,0.060302699999999994,2021-05-03 11:37:00,
595,1620022020,-5.4804687,-2.3300781,5.3066406,5.7373047,3.6010742,8.1176757,-0.1751953,0.0063476999999999995,0.060302699999999994,2021-05-03 11:37:00,
596,1620022020,-5.4960937,-2.3222656,5.3398437,4.7607422,3.4179687000000007,4.0283203,-0.1751953,0.0063476999999999995,0.060302699999999994,2021-05-03 11:37:00,
597,1620022020,-5.4980469,-2.2832031,5.3378906,14.0380859,11.2304687,1.586914,-0.1751953,0.0063476999999999995,0.060302699999999994,2021-05-03 11:37:00,
598,1620022020,-5.5351562,-2.2910156,5.2402343,12.3291015,5.3710937,0.1831055,-0.1751953,0.0063476999999999995,0.060302699999999994,2021-05-03 11:37:00,
599,1620022020,-5.5429687,-2.2792967999999996,5.2324218,13.5498047,0.8544921999999998,1.4038086,-0.1751953,0.0063476999999999995,0.060302699999999994,2021-05-03 11:37:00,
600,1620022020,-5.5722656,-2.2636717999999996,5.2792968,12.9394531,1.2207031000000002,-4.0283203,-0.1751953,0.0063476999999999995,0.060302699999999994,2021-05-03 11:37:00,
601,1620022020,-5.5,-2.2011717999999996,5.2753906,10.1928711,10.8032226,0.12207029999999999,-0.1751953,0.0063476999999999995,0.060302699999999994,2021-05-03 11:37:00,
602,1620022020,-5.4570312,-2.1992187000000003,5.1855468,7.690429700000001,11.1694336,2.8686523,-0.1751953,0.0063476999999999995,0.060302699999999994,2021-05-03 11:37:00,
603,1620022020,-5.5117187,-2.3007812000000003,5.3242187,-0.8544921999999998,2.3803711,-0.48828130000000003,-0.1751953,0.0063476999999999995,0.060302699999999994,2021-05-03 11:37:00,
604,1620022020,-5.4863281,-2.2636717999999996,5.2617187,-5.0048828,2.5024414,-7.629394500000001,-0.1751953,0.0063476999999999995,0.060302699999999994,2021-05-03 11:37:00,
605,1620022020,-5.4296875,-2.28125,5.2050781,-2.8686523,13.916015599999998,-8.1787109,-0.1751953,0.0063476999999999995,0.060302699999999994,2021-05-03 11:37:00,
606,1620022020,-5.4785156,-2.2832031,5.2246093,-5.6152344,21.9726562,-4.6386719,-0.1751953,0.0063476999999999995,0.060302699999999994,2021-05-03 11:37:00,
607,1620022020,-5.4980469,-2.2167967999999996,5.1875,-10.1318359,21.9726562,-13.7939453,-0.1751953,0.0063476999999999995,0.060302699999999994,2021-05-03 11:37:00,
608,1620022020,-5.5,-2.203125,5.1757812,-23.4985351,13.671875,-16.3574218,-0.1751953,0.0063476999999999995,0.060302699999999994,2021-05-03 11:37:00,
609,1620022020,-5.4746094,-2.21875,5.3066406,-23.1323242,24.4750976,-14.099120999999998,-0.1751953,0.0063476999999999995,0.060302699999999994,2021-05-03 11:37:00,
610,1620022020,-5.5136719,-2.2636717999999996,5.2558593,-25.024414,28.625488300000004,-3.540039,-0.1751953,0.0063476999999999995,0.060302699999999994,2021-05-03 11:37:00,
611,1620022020,-5.5507812,-2.2890625,5.2753906,-33.5083008,21.9116211,0.7324219,-0.1751953,0.0063476999999999995,0.060302699999999994,2021-05-03 11:37:00,
612,1620022020,-5.4960937,-2.3105467999999996,5.2675781,-31.4331054,17.1508789,-0.0610352,-0.1751953,0.0063476999999999995,0.060302699999999994,2021-05-03 11:37:00,
613,1620022020,-5.5761719,-2.3378906,5.2675781,-28.7475586,16.1132812,-1.8310547,-0.1751953,0.0063476999999999995,0.060302699999999994,2021-05-03 11:37:00,
614,1620022020,-5.5644531,-2.3476562000000003,5.3378906,-24.1699218,25.8789062,2.6855469,-0.1751953,0.0063476999999999995,0.060302699999999994,2021-05-03 11:37:00,
615,1620022020,-5.4980469,-2.3984375,5.3183593,-10.4980469,27.7099609,1.8310547,-0.1751953,0.0063476999999999995,0.060302699999999994,2021-05-03 11:37:00,
616,1620022021,-5.5,-2.2910156,5.296875,-16.052246,8.6669922,-0.5493164,-0.1751953,0.0063476999999999995,0.060302699999999994,2021-05-03 11:37:01,
617,1620022021,-5.5683594,-2.3496092999999996,5.171875,-13.3666992,11.1083984,-5.1269531,-0.1751953,0.0063476999999999995,0.060302699999999994,2021-05-03 11:37:01,
618,1620022021,-5.5410156,-2.2285156,5.3730468,-9.8266601,16.418457,5.3100586,-0.1751953,0.0063476999999999995,0.060302699999999994,2021-05-03 11:37:01,
619,1620022021,-5.5332031,-2.2539062000000003,5.2734375,0.1831055,16.2353515,9.2163086,-0.1751953,0.0063476999999999995,0.060302699999999994,2021-05-03 11:37:01,
620,1620022021,-5.5253906,-2.2382812000000003,5.3046875,2.1972656,3.7841796999999997,17.0898437,-0.1751953,0.0063476999999999995,0.060302699999999994,2021-05-03 11:37:01,
621,1620022021,-5.5,-2.2832031,5.3007812,7.2021484,-3.6621094,14.221191399999999,-0.1751953,0.0063476999999999995,0.060302699999999994,2021-05-03 11:37:01,
622,1620022021,-5.4863281,-2.3242187000000003,5.3144531,8.4838867,-0.1831055,11.7797851,-0.1751953,0.0063476999999999995,0.060302699999999994,2021-05-03 11:37:01,
623,1620022021,-5.4941406,-2.2714842999999996,5.296875,10.6201172,6.713867200000001,4.6386719,-0.1751953,0.0063476999999999995,0.060302699999999994,2021-05-03 11:37:01,
624,1620022021,-5.4316406,-2.3066406,5.2558593,7.0190429000000005,6.8359375,-0.1831055,-0.1751953,0.0063476999999999995,0.060302699999999994,2021-05-03 11:37:01,
625,1620022021,-5.4667969,-2.2636717999999996,5.2753906,9.0332031,11.1694336,-6.7749023,-0.1751953,0.0063476999999999995,0.060302699999999994,2021-05-03 11:37:01,
626,1620022021,-5.4433594,-2.296875,5.2441406,-1.1596678999999999,8.1176757,-12.512207,-0.1751953,0.0063476999999999995,0.060302699999999994,2021-05-03 11:37:01,
627,1620022021,-5.5273437,-2.2988281,5.265625,3.9672852,17.211914,-3.6010742,-0.1751953,0.0063476999999999995,0.060302699999999994,2021-05-03 11:37:01,
628,1620022021,-5.4589844,-2.2207031,5.2089843,-4.0893554,5.1269531,-4.3945312,-0.1751953,0.0063476999999999995,0.060302699999999994,2021-05-03 11:37:01,
629,1620022021,-5.5175781,-2.2910156,5.1953125,-8.972168,16.4794922,-11.1694336,-0.1751953,0.0063476999999999995,0.060302699999999994,2021-05-03 11:37:01,
630,1620022021,-5.4882812,-2.2890625,5.3066406,-22.9492188,20.2636718,-3.4179687000000007,-0.1751953,0.0063476999999999995,0.060302699999999994,2021-05-03 11:37:01,
631,1620022021,-5.5117187,-2.2910156,5.2421875,-18.8598633,17.211914,0.48828130000000003,-0.1751953,0.0063476999999999995,0.060302699999999994,2021-05-03 11:37:01,
632,1620022021,-5.4980469,-2.3007812000000003,5.3046875,-17.0898437,16.3574218,1.586914,-0.1751953,0.0063476999999999995,0.060302699999999994,2021-05-03 11:37:01,
633,1620022021,-5.515625,-2.3671875,5.3378906,-8.8500977,17.8222656,-6.0424804000000005,-0.1751953,0.0063476999999999995,0.060302699999999994,2021-05-03 11:37:01,
634,1620022021,-5.484375,-2.2773437000000003,5.2695312,-11.4746094,16.418457,-1.2817382,-0.1751953,0.0063476999999999995,0.060302699999999994,2021-05-03 11:37:01,
635,1620022021,-5.4667969,-2.3085937000000003,5.2207031,-7.2021484,23.4375,0.4272460999999999,-0.1751953,0.0063476999999999995,0.060302699999999994,2021-05-03 11:37:01,
636,1620022021,-5.5253906,-2.1914062000000003,5.2832031,-8.972168,9.7045898,-3.1738281,-0.1751953,0.0063476999999999995,0.060302699999999994,2021-05-03 11:37:01,
637,1620022021,-5.5097656,-2.203125,5.2929687,-8.2397461,7.2631836,-4.3945312,-0.1751953,0.0063476999999999995,0.060302699999999994,2021-05-03 11:37:01,
638,1620022021,-5.5390625,-2.2363281,5.28125,-6.0424804000000005,15.4418945,11.352539,-0.1751953,0.0063476999999999995,0.060302699999999994,2021-05-03 11:37:01,
639,1620022021,-5.5488281,-2.359375,5.2402343,-0.5493164,15.3198242,13.6108398,-0.1751953,0.0063476999999999995,0.060302699999999994,2021-05-03 11:37:01,
640,1620022021,-5.5097656,-2.3261717999999996,5.2539062,-11.2915039,-3.0517578,-0.7934571,-0.1751953,0.0063476999999999995,0.060302699999999994,2021-05-03 11:37:01,
641,1620022021,-5.5097656,-2.3398437000000003,5.1425781,-4.8217773,12.2070312,-2.6855469,-0.1751953,0.0063476999999999995,0.060302699999999994,2021-05-03 11:37:01,
642,1620022021,-5.4609375,-2.3203125,5.1914062,-18.6157226,23.2543945,-0.7324219,-0.1751953,0.0063476999999999995,0.060302699999999994,2021-05-03 11:37:01,
643,1620022021,-5.4726562,-2.28125,5.2734375,-12.0849609,21.6064453,-11.1694336,-0.1751953,0.0063476999999999995,0.060302699999999994,2021-05-03 11:37:01,
644,1620022021,-5.4511719,-2.2226562000000003,5.3164062,-14.7705078,10.559082,-15.7470703,-0.1751953,0.0063476999999999995,0.060302699999999994,2021-05-03 11:37:01,
645,1620022021,-5.5390625,-2.2089842999999996,5.2402343,-13.183593700000001,19.6533203,1.0375976,-0.1751953,0.0063476999999999995,0.060302699999999994,2021-05-03 11:37:01,
646,1620022021,-5.5644531,-2.2304687000000003,5.2910156,-1.0375976,23.3764648,10.6201172,-0.1751953,0.0063476999999999995,0.060302699999999994,2021-05-03 11:37:01,
647,1620022021,-5.578125,-2.25,5.3496093,-14.3432617,3.4790038999999995,9.2773437,-0.1751953,0.0063476999999999995,0.060302699999999994,2021-05-03 11:37:01,
648,1620022022,-5.5351562,-2.3222656,5.2578125,-7.8125,5.3100586,7.2021484,-0.1751953,0.0063476999999999995,0.060302699999999994,2021-05-03 11:37:02,
649,1620022022,-5.5644531,-2.2910156,5.2558593,-2.3803711,15.869140599999998,12.8173828,-0.1751953,0.0063476999999999995,0.060302699999999994,2021-05-03 11:37:02,
650,1620022022,-5.5175781,-2.2910156,5.203125,-11.1694336,19.9584961,11.5966797,-0.1751953,0.0063476999999999995,0.060302699999999994,2021-05-03 11:37:02,
651,1620022021,-5.5761719,-2.3300781,5.2265625,-12.6342773,19.2260742,5.0659179000000005,-0.1751953,0.0063476999999999995,0.060302699999999994,2021-05-03 11:37:01,
652,1620022021,-5.5585937,-2.2792967999999996,5.3046875,-16.7236328,14.7705078,5.0659179000000005,-0.1751953,0.0063476999999999995,0.060302699999999994,2021-05-03 11:37:01,
653,1620022021,-5.4550781,-2.2304687000000003,5.2148437,-17.8833008,13.3666992,6.2255859000000004,-0.1751953,0.0063476999999999995,0.060302699999999994,2021-05-03 11:37:01,
654,1620022021,-5.4960937,-2.21875,5.2695312,-17.9443359,22.3388672,4.2724609000000004,-0.1751953,0.0063476999999999995,0.060302699999999994,2021-05-03 11:37:01,
655,1620022021,-5.5253906,-2.2324217999999996,5.1445312,-19.6533203,22.277832,5.9204102,-0.1751953,0.0063476999999999995,0.060302699999999994,2021-05-03 11:37:01,
656,1620022021,-5.5117187,-2.2207031,5.2851562,-16.6015625,13.3666992,3.6621094,-0.1751953,0.0063476999999999995,0.060302699999999994,2021-05-03 11:37:01,
657,1620022021,-5.5273437,-2.28125,5.2695312,-18.9208984,10.1318359,1.6479491999999998,-0.1751953,0.0063476999999999995,0.060302699999999994,2021-05-03 11:37:01,
658,1620022021,-5.4570312,-2.265625,5.265625,-17.578125,17.3339843,-2.0751953000000003,-0.1751953,0.0063476999999999995,0.060302699999999994,2021-05-03 11:37:01,
659,1620022021,-5.4472656,-2.3710937000000003,5.2675781,-18.5546875,24.6582031,-8.2397461,-0.1751953,0.0063476999999999995,0.060302699999999994,2021-05-03 11:37:01,
660,1620022021,-5.5195312,-2.3203125,5.3046875,-17.0898437,17.0288085,-15.7470703,-0.1751953,0.0063476999999999995,0.060302699999999994,2021-05-03 11:37:01,
661,1620022021,-5.4921875,-2.3320312000000003,5.2675781,-8.2397461,15.197753899999999,-22.2167968,-0.1751953,0.0063476999999999995,0.060302699999999994,2021-05-03 11:37:01,
662,1620022021,-5.5175781,-2.3222656,5.3378906,-10.4980469,12.8173828,-15.625,-0.1751953,0.0063476999999999995,0.060302699999999994,2021-05-03 11:37:01,
663,1620022021,-5.5644531,-2.3320312000000003,5.3476562,6.3476562,17.2729492,-9.4604492,-0.1751953,0.0063476999999999995,0.060302699999999994,2021-05-03 11:37:01,
664,1620022021,-5.5292969,-2.2246092999999996,5.3027343,2.8076172,7.8125,-7.8125,-0.1751953,0.0063476999999999995,0.060302699999999994,2021-05-03 11:37:01,
665,1620022021,-5.5214844,-2.3339842999999996,5.1816406,0.5493164,6.7749023,-0.48828130000000003,-0.1751953,0.0063476999999999995,0.060302699999999994,2021-05-03 11:37:01,
666,1620022021,-5.4960937,-2.34375,5.2324218,-0.5493164,9.9487305,-0.12207029999999999,-0.1751953,0.0063476999999999995,0.060302699999999994,2021-05-03 11:37:01,
667,1620022021,-5.5371094,-2.2773437000000003,5.2070312,-6.8359375,15.7470703,-0.9155274,-0.1751953,0.0063476999999999995,0.060302699999999994,2021-05-03 11:37:01,
668,1620022021,-5.5429687,-2.2890625,5.2949218,-2.5634765,15.136718700000001,5.1269531,-0.1751953,0.0063476999999999995,0.060302699999999994,2021-05-03 11:37:01,
669,1620022021,-5.5019531,-2.2167967999999996,5.2304687,-5.493164,15.4418945,3.4179687000000007,-0.1751953,0.0063476999999999995,0.060302699999999994,2021-05-03 11:37:01,
670,1620022021,-5.5390625,-2.2929687000000003,5.1894531,-17.0288085,11.7797851,10.925293,-0.1751953,0.0063476999999999995,0.060302699999999994,2021-05-03 11:37:01,
671,1620022021,-5.5507812,-2.2753906,5.2695312,-15.136718700000001,13.5498047,15.197753899999999,-0.1751953,0.0063476999999999995,0.060302699999999994,2021-05-03 11:37:01,
672,1620022021,-5.4824219,-2.3144531,5.2324218,-22.0336914,13.4887695,17.2729492,-0.1751953,0.0063476999999999995,0.060302699999999994,2021-05-03 11:37:01,
673,1620022022,-5.4765625,-2.3085937000000003,5.2714843,-22.0947265,19.8974609,8.4838867,-0.1751953,0.0063476999999999995,0.060302699999999994,2021-05-03 11:37:02,
674,1620022022,-5.4199219,-2.3496092999999996,5.2597656,-25.5126953,18.7377929,3.7841796999999997,-0.1751953,0.0063476999999999995,0.060302699999999994,2021-05-03 11:37:02,
675,1620022022,-5.4667969,-2.2519531,5.2832031,-21.7285156,26.245117200000003,-0.9155274,-0.1751953,0.0063476999999999995,0.060302699999999994,2021-05-03 11:37:02,
676,1620022022,-5.4667969,-2.2871092999999996,5.34375,-25.3295898,22.277832,-5.0048828,-0.1751953,0.0063476999999999995,0.060302699999999994,2021-05-03 11:37:02,
677,1620022022,-5.5058594,-2.25,5.2636718,-18.5546875,12.878418,-9.7045898,-0.1751953,0.0063476999999999995,0.060302699999999994,2021-05-03 11:37:02,
678,1620022022,-5.5253906,-2.3144531,5.3046875,-16.8457031,11.6577148,-10.2539062,-0.1751953,0.0063476999999999995,0.060302699999999994,2021-05-03 11:37:02,
679,1620022022,-5.5585937,-2.265625,5.2871093,-6.2255859000000004,19.2260742,-2.8686523,-0.1751953,0.0063476999999999995,0.060302699999999994,2021-05-03 11:37:02,
680,1620022022,-5.4824219,-2.296875,5.3691406,-8.1787109,12.7563476,-1.586914,-0.1751953,0.0063476999999999995,0.060302699999999994,2021-05-03 11:37:02,
681,1620022022,-5.5214844,-2.2734375,5.3027343,0.8544921999999998,12.0849609,-9.2773437,-0.1751953,0.0063476999999999995,0.060302699999999994,2021-05-03 11:37:02,
682,1620022022,-5.4921875,-2.3125,5.2675781,-2.8686523,4.3945312,-7.8125,-0.1751953,0.0063476999999999995,0.060302699999999994,2021-05-03 11:37:02,
683,1620022022,-5.515625,-2.3203125,5.3164062,6.4086914,13.7329101,-14.099120999999998,-0.1751953,0.0063476999999999995,0.060302699999999994,2021-05-03 11:37:02,
684,1620022022,-5.5058594,-2.3398437000000003,5.2441406,-1.8920898000000002,8.300781200000001,-11.6577148,-0.1751953,0.0063476999999999995,0.060302699999999994,2021-05-03 11:37:02,
685,1620022022,-5.4921875,-2.2539062000000003,5.3359375,11.9018555,11.4135742,-11.0473632,-0.1751953,0.0063476999999999995,0.060302699999999994,2021-05-03 11:37:02,
686,1620022022,-5.5507812,-2.3183592999999996,5.2324218,8.1787109,2.1362304,-11.5356445,-0.1751953,0.0063476999999999995,0.060302699999999994,2021-05-03 11:37:02,
687,1620022022,-5.5351562,-2.2441406,5.328125,14.160156200000001,6.2866211,-5.3710937,-0.1751953,0.0063476999999999995,0.060302699999999994,2021-05-03 11:37:02,
688,1620022022,-5.5214844,-2.2597656,5.2285156,15.3808593,2.746582,2.8686523,-0.1751953,0.0063476999999999995,0.060302699999999994,2021-05-03 11:37:02,
689,1620022022,-5.5097656,-2.2519531,5.2597656,14.3432617,-2.4414062000000003,1.8920898000000002,-0.1751953,0.0063476999999999995,0.060302699999999994,2021-05-03 11:37:02,
690,1620022022,-5.5253906,-2.3066406,5.3125,7.8125,-4.6386719,-2.8076172,-0.1751953,0.0063476999999999995,0.060302699999999994,2021-05-03 11:37:02,
691,1620022022,-5.5273437,-2.3066406,5.2519531,9.2773437,7.2631836,-7.995605499999999,-0.1751953,0.0063476999999999995,0.060302699999999994,2021-05-03 11:37:02,
692,1620022022,-5.5019531,-2.2949217999999996,5.1992187,2.8076172,13.9770508,-11.71875,-0.1751953,0.0063476999999999995,0.060302699999999994,2021-05-03 11:37:02,
693,1620022022,-5.5058594,-2.2207031,5.25,-0.5493164,15.136718700000001,-12.6342773,-0.1751953,0.0063476999999999995,0.060302699999999994,2021-05-03 11:37:02,
694,1620022022,-5.5253906,-2.2070312000000003,5.25,-3.1127929,12.6342773,-6.652832000000001,-0.1751953,0.0063476999999999995,0.060302699999999994,2021-05-03 11:37:02,
695,1620022022,-5.5039062,-2.28125,5.1660156,-11.6577148,19.0429687,-4.8828125,-0.1751953,0.0063476999999999995,0.060302699999999994,2021-05-03 11:37:02,
696,1620022022,-5.5117187,-2.2578125,5.1875,-21.5454101,26.4282226,5.6762695,-0.1751953,0.0063476999999999995,0.060302699999999994,2021-05-03 11:37:02,
697,1620022022,-5.5253906,-2.3125,5.2441406,-29.418945299999997,18.7377929,11.5356445,-0.1751953,0.0063476999999999995,0.060302699999999994,2021-05-03 11:37:02,
698,1620022022,-5.5351562,-2.2070312000000003,5.2714843,-33.020019500000004,11.6577148,14.8315429,-0.1751953,0.0063476999999999995,0.060302699999999994,2021-05-03 11:37:02,
699,1620022022,-5.4726562,-2.3066406,5.2109375,-34.1186523,21.3012695,20.324707,-0.1751953,0.0063476999999999995,0.060302699999999994,2021-05-03 11:37:02,
700,1620022022,-5.4550781,-2.2558592999999996,5.2421875,-28.442382799999997,22.4609375,1.7700195,-0.1751953,0.0063476999999999995,0.060302699999999994,2021-05-03 11:37:02,
701,1620022022,-5.4785156,-2.2714842999999996,5.3769531,-20.5078125,25.4516601,3.2348632,-0.1751953,0.0063476999999999995,0.060302699999999994,2021-05-03 11:37:02,
702,1620022022,-5.5,-2.2832031,5.4199219,-16.4794922,5.3710937,2.1362304,-0.1751953,0.0063476999999999995,0.060302699999999994,2021-05-03 11:37:02,
703,1620022022,-5.4355469,-2.2773437000000003,5.3144531,1.2207031000000002,3.6010742,-4.8828125,-0.1751953,0.0063476999999999995,0.060302699999999994,2021-05-03 11:37:02,
704,1620022022,-5.4921875,-2.2695312000000003,5.2792968,6.958007799999999,12.2680664,-7.080078100000001,-0.1751953,0.0063476999999999995,0.060302699999999994,2021-05-03 11:37:02,
705,1620022022,-5.4863281,-2.2675781,5.2910156,7.995605499999999,13.305664000000002,-5.2490234000000004,-0.1751953,0.0063476999999999995,0.060302699999999994,2021-05-03 11:37:02,
706,1620022023,-5.4863281,-2.3125,5.2910156,8.605957,-0.366211,-9.399414,-0.1751953,0.0063476999999999995,0.060302699999999994,2021-05-03 11:37:03,
707,1620022023,-5.4980469,-2.3085937000000003,5.2714843,14.7705078,1.8920898000000002,-19.6533203,-0.1751953,0.0063476999999999995,0.060302699999999994,2021-05-03 11:37:03,
708,1620022022,-5.5351562,-2.25,5.2890625,10.3149414,7.2021484,-21.9116211,-0.1751953,0.0063476999999999995,0.060302699999999994,2021-05-03 11:37:02,
709,1620022022,-5.5429687,-2.3144531,5.2578125,13.6108398,13.4887695,-16.8457031,-0.1751953,0.0063476999999999995,0.060302699999999994,2021-05-03 11:37:02,
710,1620022022,-5.5195312,-2.3125,5.2578125,14.099120999999998,5.0048828,-8.2397461,-0.1751953,0.0063476999999999995,0.060302699999999994,2021-05-03 11:37:02,
711,1620022022,-5.4980469,-2.3261717999999996,5.3320312,8.7890625,-4.4555664,-9.5825195,-0.1751953,0.0063476999999999995,0.060302699999999994,2021-05-03 11:37:02,
712,1620022022,-5.5410156,-2.3085937000000003,5.2226562,4.9438477,5.6152344,-6.4697265,-0.1751953,0.0063476999999999995,0.060302699999999994,2021-05-03 11:37:02,
713,1620022022,-5.5097656,-2.3515625,5.2460937,0.24414059999999999,16.052246,-1.8310547,-0.1751953,0.0063476999999999995,0.060302699999999994,2021-05-03 11:37:02,
714,1620022022,-5.484375,-2.2617187000000003,5.1835937,-0.9155274,14.160156200000001,-1.6479491999999998,-0.1751953,0.0063476999999999995,0.060302699999999994,2021-05-03 11:37:02,
715,1620022022,-5.5371094,-2.2324217999999996,5.2050781,-9.3383789,6.958007799999999,-1.2817382,-0.1751953,0.0063476999999999995,0.060302699999999994,2021-05-03 11:37:02,
716,1620022022,-5.5429687,-2.2597656,5.1269531,-15.0146484,12.9394531,-1.0375976,-0.1751953,0.0063476999999999995,0.060302699999999994,2021-05-03 11:37:02,
717,1620022022,-5.4902344,-2.2832031,5.2207031,-14.160156200000001,22.1557617,0.7324219,-0.1751953,0.0063476999999999995,0.060302699999999994,2021-05-03 11:37:02,
718,1620022022,-5.5078125,-2.2734375,5.2773437,-20.6298828,20.9350586,1.2207031000000002,-0.1751953,0.0063476999999999995,0.060302699999999994,2021-05-03 11:37:02,
719,1620022022,-5.4667969,-2.2851562000000003,5.2792968,-20.6298828,15.7470703,2.9296875,-0.1751953,0.0063476999999999995,0.060302699999999994,2021-05-03 11:37:02,
720,1620022022,-5.5078125,-2.234375,5.2851562,-24.7192383,17.8222656,6.3476562,-0.1751953,0.0063476999999999995,0.060302699999999994,2021-05-03 11:37:02,
721,1620022022,-5.5351562,-2.3066406,5.2558593,-23.4375,22.7661133,9.1552734,-0.1751953,0.0063476999999999995,0.060302699999999994,2021-05-03 11:37:02,
722,1620022022,-5.5078125,-2.2734375,5.3261718,-24.1699218,20.8740234,10.3149414,-0.1751953,0.0063476999999999995,0.060302699999999994,2021-05-03 11:37:02,
723,1620022022,-5.5175781,-2.28125,5.21875,-22.0336914,16.1132812,5.3710937,-0.1751953,0.0063476999999999995,0.060302699999999994,2021-05-03 11:37:02,
724,1620022022,-5.5078125,-2.3183592999999996,5.2246093,-21.3623047,17.3950195,0.9765626000000001,-0.1751953,0.0063476999999999995,0.060302699999999994,2021-05-03 11:37:02,
725,1620022022,-5.484375,-2.2636717999999996,5.2011718,-19.5922851,21.118164,2.3803711,-0.1751953,0.0063476999999999995,0.060302699999999994,2021-05-03 11:37:02,
726,1620022022,-5.5175781,-2.2753906,5.3476562,-12.5732422,20.2026367,1.2207031000000002,-0.1751953,0.0063476999999999995,0.060302699999999994,2021-05-03 11:37:02,
727,1620022022,-5.4941406,-2.3105467999999996,5.34375,-12.0239257,13.427734400000002,-2.6855469,-0.1751953,0.0063476999999999995,0.060302699999999994,2021-05-03 11:37:02,
728,1620022022,-5.46875,-2.2753906,5.2871093,-6.2866211,12.2070312,-0.6713868000000001,-0.1751953,0.0063476999999999995,0.060302699999999994,2021-05-03 11:37:02,
729,1620022022,-5.4824219,-2.3066406,5.296875,-5.0048828,12.3291015,2.8076172,-0.1751953,0.0063476999999999995,0.060302699999999994,2021-05-03 11:37:02,
730,1620022022,-5.546875,-2.3046875,5.2871093,-0.7934571,10.925293,-1.953125,-0.1751953,0.0063476999999999995,0.060302699999999994,2021-05-03 11:37:02,
731,1620022022,-5.5273437,-2.3515625,5.2324218,-2.8076172,9.3383789,-5.0048828,-0.1751953,0.0063476999999999995,0.060302699999999994,2021-05-03 11:37:02,
732,1620022022,-5.4726562,-2.34375,5.2285156,4.4555664,12.4511719,-5.4321289,-0.1751953,0.0063476999999999995,0.060302699999999994,2021-05-03 11:37:02,
733,1620022022,-5.4570312,-2.2695312000000003,5.3144531,0.9155274,11.0473632,-4.8828125,-0.1751953,0.0063476999999999995,0.060302699999999994,2021-05-03 11:37:02,
734,1620022023,-5.4707031,-2.3066406,5.2734375,1.8310547,8.605957,-8.4228515,-0.1751953,0.0063476999999999995,0.060302699999999994,2021-05-03 11:37:03,
